Datos de la Planta a lazo abierto (Gla) o lazo cerrado (Glc)
C:\Users\Paulo\Documents\PAULO\CONTROL\ETN1040\3D printer\3D PRINTER PROJECT\analisis\datos recolectados\Gp_tm1000ms_19V_3kHz.txt
28/02/2014 01:54:19 p.m.

r(t):Voltaje[V]  y(t):Voltaje[V]  y(t):Temp[Â°C]  Tiempo de muestreo:tm[ms]
1,03085          0,49288          29,5728           1316,2057
1,03085          0,47824          28,6944           2330,2075
1,03085          0,4636           27,816            3344,2093
1,03085          0,488            29,28             4498,6113
1,03085          0,47336          28,4016           5372,2129
1,03085                      0,51728                     31,0368                     6386,2147
1,03085                      0,50264                     30,1584                     7400,2164
1,03085                      0,49288                     29,5728                     8585,8185
1,03085                      0,49288                     29,5728                     9428,22
1,03085                      0,50752                     30,4512                     10442,2218
1,03085                      0,50264                     30,1584                     11456,2236
1,03085                      0,49288                     29,5728                     12641,8256
1,03085                      0,51728                     31,0368                     13484,2271
1,03085                      0,4636                     27,816                     14498,2289
1,03085                      0,50264                     30,1584                     15512,2307
1,03085                      0,53192                     31,9152                     16697,8328
1,03085                      0,50752                     30,4512                     17540,2342
1,03085                      0,52216                     31,3296                     18554,236
1,03085                      0,49776                     29,8656                     19568,2378
1,03085                      0,52216                     31,3296                     20753,8399
1,03085                      0,50264                     30,1584                     21596,2414
1,03085                      0,5124                     30,744                     22610,2432
1,03085                      0,51728                     31,0368                     23624,2449
1,03085                      0,50752                     30,4512                     24809,847
1,03085                      0,50752                     30,4512                     25652,2485
1,03085                      0,50264                     30,1584                     26666,2503
1,03085                      0,52216                     31,3296                     27680,2521
1,03085                      0,50752                     30,4512                     28865,8541
1,03085                      0,53192                     31,9152                     29708,2556
1,03085                      0,49288                     29,5728                     30722,2574
1,03085                      0,5124                     30,744                     31783,0593
1,03085                      0,49776                     29,8656                     32750,261
1,03085                      0,53192                     31,9152                     33764,2627
1,03085                      0,52216                     31,3296                     34949,8648
1,03085                      0,52704                     31,6224                     35792,2663
1,03085                      0,5368                     32,208                     36806,2681
1,03085                      0,54168                     32,5008                     37820,2699
1,03085                      0,54168                     32,5008                     39005,8719
1,03085                      0,54168                     32,5008                     39848,2734
1,03085                      0,52216                     31,3296                     40862,2752
1,03085                      0,52704                     31,6224                     41876,277
1,03085                      0,53192                     31,9152                     43061,8791
1,03085                      0,57584                     34,5504                     43904,2806
1,03085                      0,53192                     31,9152                     44918,2823
1,03085                      0,54168                     32,5008                     45932,2841
1,03085                      0,5612                     33,672                     46946,2859
1,03085                      0,5612                     33,672                     47960,2877
1,03085                      0,55144                     33,0864                     49161,4898
1,03085                      0,5368                     32,208                     49988,2912
1,03085                      0,52216                     31,3296                     51002,293
1,03085                      0,52704                     31,6224                     52016,2948
1,03085                      0,54656                     32,7936                     53201,8969
1,03085                      0,54656                     32,7936                     54044,2984
1,03085                      0,54656                     32,7936                     55058,3001
1,03085                      0,56608                     33,9648                     56072,3019
1,03085                      0,55144                     33,0864                     57257,904
1,03085                      0,54656                     32,7936                     58100,3055
1,03085                      0,55144                     33,0864                     59114,3073
1,03085                      0,58072                     34,8432                     60128,309
1,03085                      0,57096                     34,2576                     61298,3111
1,03085                      0,55632                     33,3792                     62156,3126
1,03085                      0,57584                     34,5504                     63170,3144
1,03085                      0,55632                     33,3792                     64184,3162
1,03085                      0,5856                     35,136                     65369,9183
1,03085                      0,56608                     33,9648                     66212,3197
1,03085                      0,5612                     33,672                     67226,3215
1,03085                      0,61488                     36,8928                     68240,3233
1,03085                      0,56608                     33,9648                     69254,3251
1,03085                      0,56608                     33,9648                     70268,3269
1,03085                      0,59048                     35,4288                     71282,3286
1,03085                      0,57584                     34,5504                     72296,3304
1,03085                      0,56608                     33,9648                     73310,3322
1,03085                      0,57584                     34,5504                     74324,334
1,03085                      0,59048                     35,4288                     75494,336
1,03085                      0,5856                     35,136                     76352,3375
1,03085                      0,57584                     34,5504                     77366,3393
1,03085                      0,5612                     33,672                     78380,3411
1,03085                      0,61488                     36,8928                     79565,9432
1,03085                      0,57584                     34,5504                     80408,3447
1,03085                      0,60512                     36,3072                     81422,3464
1,03085                      0,59536                     35,7216                     82436,3482
1,03085                      0,63928                     38,3568                     83450,35
1,03085                      0,59048                     35,4288                     84464,3518
1,03085                      0,61976                     37,1856                     85478,3536
1,03085                      0,5856                     35,136                     86492,3554
1,03085                      0,62464                     37,4784                     87506,3571
1,03085                      0,62952                     37,7712                     88520,3589
1,03085                      0,60512                     36,3072                     89534,3607
1,03085                      0,59536                     35,7216                     90548,3625
1,03085                      0,60512                     36,3072                     91562,3643
1,03085                      0,62952                     37,7712                     92576,366
1,03085                      0,61976                     37,1856                     93590,3678
1,03085                      0,61                     36,6                     94604,3696
1,03085                      0,61488                     36,8928                     95618,3714
1,03085                      0,62464                     37,4784                     96632,3732
1,03085                      0,61976                     37,1856                     97646,3749
1,03085                      0,64416                     38,6496                     98660,3767
1,03085                      0,66856                     40,1136                     99674,3785
1,03085                      0,66368                     39,8208                     100688,3803
1,03085                      0,6344                     38,064                     101702,3821
1,03085                      0,67344                     40,4064                     102716,3838
1,03085                      0,60512                     36,3072                     103730,3856
1,03085                      0,67344                     40,4064                     104744,3874
1,03085                      0,63928                     38,3568                     105758,3892
1,03085                      0,65392                     39,2352                     106772,391
1,03085                      0,6344                     38,064                     107786,3928
1,03085                      0,66856                     40,1136                     108800,3945
1,03085                      0,61976                     37,1856                     109814,3963
1,03085                      0,68808                     41,2848                     110828,3981
1,03085                      0,62952                     37,7712                     111842,3999
1,03085                      0,66368                     39,8208                     112856,4017
1,03085                      0,67344                     40,4064                     113870,4034
1,03085                      0,6832                     40,992                     114884,4052
1,03085                      0,61976                     37,1856                     115898,407
1,03085                      0,63928                     38,3568                     116912,4088
1,03085                      0,6832                     40,992                     117926,4106
1,03085                      0,6832                     40,992                     118940,4123
1,03085                      0,6588                     39,528                     119954,4141
1,03085                      0,70272                     42,1632                     120968,4159
1,03085                      0,69296                     41,5776                     121982,4177
1,03085                      0,7076                     42,456                     122996,4195
1,03085                      0,6588                     39,528                     124010,4213
1,03085                      0,69296                     41,5776                     125024,423
1,03085                      0,66368                     39,8208                     126038,4248
1,03085                      0,68808                     41,2848                     127052,4266
1,03085                      0,66856                     40,1136                     128066,4284
1,03085                      0,71248                     42,7488                     129080,4302
1,03085                      0,7076                     42,456                     130094,4319
1,03085                      0,67832                     40,6992                     131108,4337
1,03085                      0,69296                     41,5776                     132122,4355
1,03085                      0,69784                     41,8704                     133136,4373
1,03085                      0,69296                     41,5776                     134150,4391
1,03085                      0,70272                     42,1632                     135164,4408
1,03085                      0,6832                     40,992                     136178,4426
1,03085                      0,70272                     42,1632                     137192,4444
1,03085                      0,72712                     43,6272                     138206,4462
1,03085                      0,67832                     40,6992                     139220,448
1,03085                      0,70272                     42,1632                     140234,4497
1,03085                      0,66368                     39,8208                     141248,4515
1,03085                      0,71736                     43,0416                     142262,4533
1,03085                      0,732                     43,92                     143276,4551
1,03085                      0,7076                     42,456                     144290,4569
1,03085                      0,71736                     43,0416                     145304,4587
1,03085                      0,72712                     43,6272                     146318,4604
1,03085                      0,74176                     44,5056                     147332,4622
1,03085                      0,68808                     41,2848                     148346,464
1,03085                      0,7564                     45,384                     149360,4658
1,03085                      0,71248                     42,7488                     150374,4676
1,03085                      0,74664                     44,7984                     151388,4693
1,03085                      0,7076                     42,456                     152402,4711
1,03085                      0,73688                     44,2128                     153416,4729
1,03085                      0,69784                     41,8704                     154430,4747
1,03085                      0,7564                     45,384                     155444,4765
1,03085                      0,71736                     43,0416                     156458,4782
1,03085                      0,73688                     44,2128                     157472,48
1,03085                      0,73688                     44,2128                     158486,4818
1,03085                      0,74176                     44,5056                     159500,4836
1,03085                      0,732                     43,92                     160514,4854
1,03085                      0,77104                     46,2624                     161528,4871
1,03085                      0,74664                     44,7984                     162542,4889
1,03085                      0,77104                     46,2624                     163556,4907
1,03085                      0,75152                     45,0912                     164570,4925
1,03085                      0,7564                     45,384                     165584,4943
1,03085                      0,72712                     43,6272                     166598,4961
1,03085                      0,77592                     46,5552                     167612,4978
1,03085                      0,80032                     48,0192                     168798,0999
1,03085                      0,79056                     47,4336                     169640,5014
1,03085                      0,73688                     44,2128                     170654,5032
1,03085                      0,74176                     44,5056                     171668,505
1,03085                      0,76616                     45,9696                     172682,5067
1,03085                      0,76128                     45,6768                     173696,5085
1,03085                      0,77104                     46,2624                     174710,5103
1,03085                      0,75152                     45,0912                     175724,5121
1,03085                      0,77104                     46,2624                     176738,5139
1,03085                      0,77104                     46,2624                     177752,5156
1,03085                      0,77104                     46,2624                     178766,5174
1,03085                      0,74664                     44,7984                     179780,5192
1,03085                      0,74664                     44,7984                     180794,521
1,03085                      0,74664                     44,7984                     181808,5228
1,03085                      0,78568                     47,1408                     182822,5245
1,03085                      0,80032                     48,0192                     183836,5263
1,03085                      0,7808                     46,848                     184850,5281
1,03085                      0,77592                     46,5552                     185864,5299
1,03085                      0,78568                     47,1408                     186878,5317
1,03085                      0,7808                     46,848                     187892,5335
1,03085                      0,75152                     45,0912                     188906,5352
1,03085                      0,77104                     46,2624                     189920,537
1,03085                      0,79544                     47,7264                     190934,5388
1,03085                      0,7564                     45,384                     191948,5406
1,03085                      0,8052                     48,312                     192962,5424
1,03085                      0,76128                     45,6768                     193992,1442
1,03085                      0,80032                     48,0192                     194990,5459
1,03085                      0,79544                     47,7264                     196004,5477
1,03085                      0,83448                     50,0688                     197018,5495
1,03085                      0,81496                     48,8976                     198032,5513
1,03085                      0,78568                     47,1408                     199046,553
1,03085                      0,80032                     48,0192                     200060,5548
1,03085                      0,80032                     48,0192                     201074,5566
1,03085                      0,79056                     47,4336                     202088,5584
1,03085                      0,81496                     48,8976                     203102,5602
1,03085                      0,82472                     49,4832                     204116,5619
1,03085                      0,81984                     49,1904                     205130,5637
1,03085                      0,80032                     48,0192                     206144,5655
1,03085                      0,78568                     47,1408                     207158,5673
1,03085                      0,84912                     50,9472                     208172,5691
1,03085                      0,8296                     49,776                     209186,5709
1,03085                      0,8052                     48,312                     210200,5726
1,03085                      0,8052                     48,312                     211214,5744
1,03085                      0,81496                     48,8976                     212228,5762
1,03085                      0,83936                     50,3616                     213242,578
1,03085                      0,81984                     49,1904                     214256,5798
1,03085                      0,81008                     48,6048                     215270,5815
1,03085                      0,81496                     48,8976                     216300,1833
1,03085                      0,83936                     50,3616                     217298,5851
1,03085                      0,81984                     49,1904                     218312,5869
1,03085                      0,81496                     48,8976                     219326,5887
1,03085                      0,81984                     49,1904                     220340,5904
1,03085                      0,8296                     49,776                     221354,5922
1,03085                      0,8296                     49,776                     222368,594
1,03085                      0,83448                     50,0688                     223382,5958
1,03085                      0,83448                     50,0688                     224396,5976
1,03085                      0,8296                     49,776                     225410,5994
1,03085                      0,854                     51,24                     226424,6011
1,03085                      0,85888                     51,5328                     227438,6029
1,03085                      0,854                     51,24                     228452,6047
1,03085                      0,83936                     50,3616                     229466,6065
1,03085                      0,84912                     50,9472                     230480,6083
1,03085                      0,88816                     53,2896                     231494,61
1,03085                      0,83936                     50,3616                     232508,6118
1,03085                      0,87352                     52,4112                     233522,6136
1,03085                      0,84424                     50,6544                     234536,6154
1,03085                      0,96136                     57,6816                     235550,6172
1,03085                      0,87352                     52,4112                     236564,6189
1,03085                      0,9028                     54,168                     237578,6207
1,03085                      0,89304                     53,5824                     238592,6225
1,03085                      0,89304                     53,5824                     239606,6243
1,03085                      0,8784                     52,704                     240620,6261
1,03085                      0,91256                     54,7536                     241634,6278
1,03085                      0,854                     51,24                     242648,6296
1,03085                      0,90768                     54,4608                     243662,6314
1,03085                      0,88816                     53,2896                     244676,6332
1,03085                      0,89792                     53,8752                     245690,635
1,03085                      0,86864                     52,1184                     246704,6368
1,03085                      0,91256                     54,7536                     247718,6385
1,03085                      0,8784                     52,704                     248732,6403
1,03085                      0,88816                     53,2896                     249746,6421
1,03085                      0,86864                     52,1184                     250760,6439
1,03085                      0,8784                     52,704                     251774,6457
1,03085                      0,8784                     52,704                     252788,6474
1,03085                      0,87352                     52,4112                     253802,6492
1,03085                      0,86864                     52,1184                     254816,651
1,03085                      0,9028                     54,168                     255830,6528
1,03085                      0,88328                     52,9968                     256844,6546
1,03085                      0,88816                     53,2896                     257858,6563
1,03085                      0,90768                     54,4608                     258872,6581
1,03085                      0,88328                     52,9968                     259886,6599
1,03085                      0,91256                     54,7536                     260900,6617
1,03085                      0,9272                     55,632                     261914,6635
1,03085                      0,89792                     53,8752                     262944,2653
1,03085                      0,89304                     53,5824                     263942,667
1,03085                      0,9028                     54,168                     264956,6688
1,03085                      0,89304                     53,5824                     265970,6706
1,03085                      0,88328                     52,9968                     266984,6724
1,03085                      0,91256                     54,7536                     267998,6742
1,03085                      0,89792                     53,8752                     269012,6759
1,03085                      0,93208                     55,9248                     270026,6777
1,03085                      0,9028                     54,168                     271040,6795
1,03085                      0,976                     58,56                     272054,6813
1,03085                      0,93696                     56,2176                     273068,6831
1,03085                      0,91256                     54,7536                     274082,6848
1,03085                      0,90768                     54,4608                     275096,6866
1,03085                      0,95648                     57,3888                     276110,6884
1,03085                      0,95648                     57,3888                     277124,6902
1,03085                      0,94672                     56,8032                     278138,692
1,03085                      0,9516                     57,096                     279152,6937
1,03085                      0,9516                     57,096                     280166,6955
1,03085                      0,9516                     57,096                     281180,6973
1,03085                      0,95648                     57,3888                     282194,6991
1,03085                      0,94672                     56,8032                     283208,7009
1,03085                      0,97112                     58,2672                     284222,7026
1,03085                      0,9272                     55,632                     285236,7044
1,03085                      0,96136                     57,6816                     286250,7062
1,03085                      0,94184                     56,5104                     287264,708
1,03085                      0,96624                     57,9744                     288278,7098
1,03085                      0,94184                     56,5104                     289292,7116
1,03085                      0,97112                     58,2672                     290306,7133
1,03085                      0,94184                     56,5104                     291320,7151
1,03085                      0,98088                     58,8528                     292334,7169
1,03085                      0,97112                     58,2672                     293348,7187
1,03085                      1,0004                     60,024                     294362,7205
1,03085                      0,95648                     57,3888                     295392,3223
1,03085                      0,97112                     58,2672                     296562,3243
1,03085                      0,97112                     58,2672                     297467,1259
1,03085                      1,0004                     60,024                     298418,7276
1,03085                      0,94672                     56,8032                     299432,7294
1,03085                      0,9516                     57,096                     300446,7311
1,03085                      0,96624                     57,9744                     301460,7329
1,03085                      1,00528                     60,3168                     302474,7347
1,03085                      0,99552                     59,7312                     303488,7365
1,03085                      0,98576                     59,1456                     304502,7383
1,03085                      0,9516                     57,096                     305516,74
1,03085                      0,976                     58,56                     306530,7418
1,03085                      0,976                     58,56                     307544,7436
1,03085                      0,98576                     59,1456                     308699,1456
1,03085                      0,96624                     57,9744                     309603,9472
1,03085                      0,96136                     57,6816                     310617,949
1,03085                      0,96624                     57,9744                     311593,1512
1,03085                      0,98576                     59,1456                     312617,5529
1,03085                      0,96136                     57,6816                     313771,9549
1,03085                      0,97112                     58,2672                     314645,5564
1,03085                      0,99064                     59,4384                     315659,5582
1,03085                      0,96624                     57,9744                     316845,1603
1,03085                      1,0004                     60,024                     317687,5618
1,03085                      0,99552                     59,7312                     318701,5636
1,03085                      0,97112                     58,2672                     319715,5653
1,03085                      0,976                     58,56                     320901,1674
1,03085                      1,00528                     60,3168                     321743,5689
1,03085                      0,976                     58,56                     322757,5707
1,03085                      0,99064                     59,4384                     323818,3725
1,03085                      1,01016                     60,6096                     324785,5742
1,03085                      0,98576                     59,1456                     325799,576
1,03085                      1,03456                     62,0736                     326813,5778
1,03085                      1,02968                     61,7808                     327827,5796
1,03085                      1,03944                     62,3664                     328841,5814
1,03085                      0,98576                     59,1456                     329855,5831
1,03085                      1,0004                     60,024                     331041,1852
1,03085                      0,99552                     59,7312                     331883,5867
1,03085                      1,02968                     61,7808                     332897,5885
1,03085                      0,98576                     59,1456                     333911,5903
1,03085                      1,01992                     61,1952                     335097,1924
1,03085                      1,0004                     60,024                     335939,5938
1,03085                      1,05408                     63,2448                     336953,5956
1,03085                      1,0248                     61,488                     337967,5974
1,03085                      1,00528                     60,3168                     339153,1995
1,03085                      1,0004                     60,024                     339995,601
1,03085                      1,06384                     63,8304                     341009,6027
1,03085                      1,0004                     60,024                     342023,6045
1,03085                      1,02968                     61,7808                     343209,2066
1,03085                      1,03456                     62,0736                     344051,6081
1,03085                      1,0492                     62,952                     345065,6099
1,03085                      1,01016                     60,6096                     346079,6116
1,03085                      1,01016                     60,6096                     347265,2137
1,03085                      1,04432                     62,6592                     348107,6152
1,03085                      1,06872                     64,1232                     349121,617
1,03085                      1,01016                     60,6096                     350135,6188
1,03085                      1,0736                     64,416                     351305,6208
1,03085                      1,0248                     61,488                     352163,6223
1,03085                      1,04432                     62,6592                     353177,6241
1,03085                      1,0248                     61,488                     354191,6259
1,03085                      1,0248                     61,488                     355377,228
1,03085                      1,05408                     63,2448                     356219,6295
1,03085                      1,05408                     63,2448                     357233,6312
1,03085                      1,0492                     62,952                     358247,633
1,03085                      1,0492                     62,952                     359433,2351
1,03085                      1,06384                     63,8304                     360275,6366
1,03085                      1,03456                     62,0736                     361289,6384
1,03085                      1,05408                     63,2448                     362303,6401
1,03085                      1,03944                     62,3664                     363489,2422
1,03085                      1,04432                     62,6592                     364331,6437
1,03085                      1,03944                     62,3664                     365361,2455
1,03085                      1,02968                     61,7808                     366359,6473
1,03085                      1,03456                     62,0736                     367373,649
1,03085                      1,03944                     62,3664                     368387,6508
1,03085                      1,0736                     64,416                     369573,2529
1,03085                      1,03944                     62,3664                     370415,6544
1,03085                      1,0736                     64,416                     371429,6562
1,03085                      1,05408                     63,2448                     372443,658
1,03085                      1,098                     65,88                     373629,26
1,03085                      1,08824                     65,2944                     374471,6615
1,03085                      1,0736                     64,416                     375485,6633
1,03085                      1,0736                     64,416                     376499,6651
1,03085                      1,10288                     66,1728                     377685,2672
1,03085                      1,06384                     63,8304                     378527,6686
1,03085                      1,05408                     63,2448                     379541,6704
1,03085                      1,08336                     65,0016                     380555,6722
1,03085                      1,10776                     66,4656                     381741,2743
1,03085                      1,07848                     64,7088                     382583,6758
1,03085                      1,09312                     65,5872                     383597,6775
1,03085                      1,08336                     65,0016                     384611,6793
1,03085                      1,08824                     65,2944                     385797,2814
1,03085                      1,05896                     63,5376                     386639,6829
1,03085                      1,06872                     64,1232                     387653,6847
1,03085                      1,08824                     65,2944                     388667,6864
1,03085                      1,06384                     63,8304                     389978,0887
1,03085                      1,06872                     64,1232                     390695,69
1,03085                      1,06384                     63,8304                     391709,6918
1,03085                      1,09312                     65,5872                     392723,6936
1,03085                      1,0492                     62,952                     393924,8957
1,03085                      1,098                     65,88                     394751,6971
1,03085                      1,098                     65,88                     395765,6989
1,03085                      1,098                     65,88                     396779,7007
1,03085                      1,10776                     66,4656                     397793,7025
1,03085                      1,10288                     66,1728                     398807,7043
1,03085                      1,07848                     64,7088                     399821,706
1,03085                      1,11752                     67,0512                     400835,7078
1,03085                      1,10776                     66,4656                     401849,7096
1,03085                      1,11264                     66,7584                     402863,7114
1,03085                      1,10776                     66,4656                     403924,5132
1,03085                      1,11752                     67,0512                     406592,1179
1,03085                      1,1224                     67,344                     406919,7185
1,03085                      1,11752                     67,0512                     407933,7203
1,03085                      1,1224                     67,344                     408947,7221
1,03085                      1,11264                     66,7584                     409961,7238
1,03085                      1,11752                     67,0512                     410975,7256
1,03085                      1,11752                     67,0512                     411989,7274
1,03085                      1,1468                     68,808                     413003,7292
1,03085                      1,098                     65,88                     414017,731
1,03085                      1,1468                     68,808                     415031,7328
1,03085                      1,09312                     65,5872                     416045,7345
1,03085                      1,13216                     67,9296                     417059,7363
1,03085                      1,10776                     66,4656                     418073,7381
1,03085                      1,13216                     67,9296                     419087,7399
1,03085                      1,12728                     67,6368                     420101,7417
1,03085                      1,14192                     68,5152                     421115,7434
1,03085                      1,12728                     67,6368                     422129,7452
1,03085                      1,13216                     67,9296                     423143,747
1,03085                      1,10776                     66,4656                     424157,7488
1,03085                      1,12728                     67,6368                     425234,1507
1,03085                      1,10776                     66,4656                     426185,7523
1,03085                      1,08824                     65,2944                     427199,7541
1,03085                      1,11752                     67,0512                     428213,7559
1,03085                      1,13704                     68,2224                     429227,7577
1,03085                      1,13216                     67,9296                     430241,7595
1,03085                      1,11752                     67,0512                     431255,7612
1,03085                      1,1224                     67,344                     432269,763
1,03085                      1,11752                     67,0512                     433283,7648
1,03085                      1,14192                     68,5152                     434313,3666
1,03085                      1,12728                     67,6368                     435311,7684
1,03085                      1,12728                     67,6368                     436325,7702
1,03085                      1,15656                     69,3936                     437355,372
1,03085                      1,1468                     68,808                     438353,7737
1,03085                      1,16632                     69,9792                     439367,7755
1,03085                      1,1468                     68,808                     440381,7773
1,03085                      1,16632                     69,9792                     441395,7791
1,03085                      1,15168                     69,1008                     442409,7808
1,03085                      1,12728                     67,6368                     443470,5827
1,03085                      1,13216                     67,9296                     444437,7844
1,03085                      1,15168                     69,1008                     445451,7862
1,03085                      1,15656                     69,3936                     446481,388
1,03085                      1,16632                     69,9792                     447479,7897
1,03085                      1,16632                     69,9792                     448493,7915
1,03085                      1,1712                     70,272                     449538,9934
1,03085                      1,14192                     68,5152                     450521,7951
1,03085                      1,17608                     70,5648                     451535,7969
1,03085                      1,1712                     70,272                     452565,3987
1,03085                      1,18096                     70,8576                     453563,8004
1,03085                      1,16144                     69,6864                     454577,8022
1,03085                      1,18584                     71,1504                     455607,404
1,03085                      1,17608                     70,5648                     456605,8058
1,03085                      1,17608                     70,5648                     457619,8076
1,03085                      1,15168                     69,1008                     458665,0094
1,03085                      1,17608                     70,5648                     459647,8111
1,03085                      1,15656                     69,3936                     460661,8129
1,03085                      1,21512                     72,9072                     461691,4147
1,03085                      1,14192                     68,5152                     462689,8165
1,03085                      1,18096                     70,8576                     463703,8182
1,03085                      1,16144                     69,6864                     464749,0201
1,03085                      1,16632                     69,9792                     465731,8218
1,03085                      1,15656                     69,3936                     466745,8236
1,03085                      1,17608                     70,5648                     467775,4254
1,03085                      1,16632                     69,9792                     468766,0293
1,03085                      1,18584                     71,1504                     469780,0311
1,03085                      1,19072                     71,4432                     470809,6329
1,03085                      1,16632                     69,9792                     471808,0346
1,03085                      1,18584                     71,1504                     472822,0364
1,03085                      1,19072                     71,4432                     473867,2383
1,03085                      1,17608                     70,5648                     474850,04
1,03085                      1,16632                     69,9792                     475864,0418
1,03085                      1,19072                     71,4432                     476893,6436
1,03085                      1,18096                     70,8576                     477892,0453
1,03085                      1,18096                     70,8576                     478906,0471
1,03085                      1,22488                     73,4928                     479935,6489
1,03085                      1,18096                     70,8576                     480934,0507
1,03085                      1,20048                     72,0288                     481948,0524
1,03085                      1,18584                     71,1504                     482993,2543
1,03085                      1,10776                     66,4656                     483976,056
1,03085                      1,21024                     72,6144                     484990,0578
1,03085                      1,22488                     73,4928                     486019,6596
1,03085                      1,1712                     70,272                     487018,0614
1,03085                      1,17608                     70,5648                     488032,0631
1,03085                      1,20536                     72,3216                     489077,265
1,03085                      1,18584                     71,1504                     490060,0667
1,03085                      1,17608                     70,5648                     491074,0685
1,03085                      1,20536                     72,3216                     492103,6703
1,03085                      1,18096                     70,8576                     493102,072
1,03085                      1,1956                     71,736                     494116,0738
1,03085                      1,1956                     71,736                     495145,6756
1,03085                      1,20536                     72,3216                     496144,0774
1,03085                      1,20048                     72,0288                     497158,0792
1,03085                      1,18584                     71,1504                     498203,281
1,03085                      1,18584                     71,1504                     499186,0827
1,03085                      1,20536                     72,3216                     500200,0845
1,03085                      1,1956                     71,736                     501229,6863
1,03085                      1,21512                     72,9072                     502228,0881
1,03085                      1,18584                     71,1504                     503242,0898
1,03085                      1,20048                     72,0288                     504287,2917
1,03085                      1,22                     73,2                     505270,0934
1,03085                      1,21512                     72,9072                     506284,0952
1,03085                      1,22488                     73,4928                     507313,697
1,03085                      1,21512                     72,9072                     508312,0988
1,03085                      1,20536                     72,3216                     509326,1005
1,03085                      1,1956                     71,736                     510355,7023
1,03085                      1,22488                     73,4928                     511354,1041
1,03085                      0                     0                     512368,1059
1,03085                      1,1956                     71,736                     513413,3077
1,03085                      1,23952                     74,3712                     514396,1094
1,03085                      1,20536                     72,3216                     515410,1112
1,03085                      0,03904                     2,3424                     516424,113
1,03085                      1,20048                     72,0288                     517438,1148
1,03085                      0,00488                     0,2928                     518452,1166
1,03085                      1,21512                     72,9072                     519497,3184
1,03085                      1,25416                     75,2496                     520480,1201
1,03085                      1,21512                     72,9072                     521494,1219
1,03085                      2,4888                     149,328                     522508,1237
1,03085                      1,22488                     73,4928                     523522,1255
1,03085                      1,26392                     75,8352                     524536,1273
1,03085                      1,22976                     73,7856                     525565,7291
1,03085                      0,01952                     1,1712                     526564,1308
1,03085                      1,23952                     74,3712                     527578,1326
1,03085                      0,00488                     0,2928                     528623,3344
1,03085                      1,23464                     74,0784                     529606,1362
1,03085                      1,23952                     74,3712                     530620,1379
1,03085                      1,22488                     73,4928                     531649,7397
1,03085                      1,21512                     72,9072                     532648,1415
1,03085                      1,22488                     73,4928                     533662,1433
1,03085                      0,01952                     1,1712                     534707,3451
1,03085                      1,22976                     73,7856                     535690,1468
1,03085                      0,01952                     1,1712                     536704,1486
1,03085                      1,2444                     74,664                     537718,1504
1,03085                      0,00976                     0,5856                     538732,1522
1,03085                      1,22976                     73,7856                     539746,154
1,03085                      1,24928                     74,9568                     540775,7558
1,03085                      2,48392                     149,0352                     541774,1575
1,03085                      1,22976                     73,7856                     542788,1593
1,03085                      1,23464                     74,0784                     543833,3611
1,03085                      1,25416                     75,2496                     544816,1629
1,03085                      1,23464                     74,0784                     545830,1647
1,03085                      0,01464                     0,8784                     546859,7665
1,03085                      1,25416                     75,2496                     547858,1682
1,03085                      1,25416                     75,2496                     548872,17
1,03085                      1,25416                     75,2496                     549886,1718
1,03085                      1,25904                     75,5424                     550900,1736
1,03085                      1,25904                     75,5424                     551914,1753
1,03085                      1,25904                     75,5424                     552928,1771
1,03085                      1,23952                     74,3712                     553942,1789
1,03085                      1,24928                     74,9568                     554956,1807
1,03085                      0,00976                     0,5856                     555970,1825
1,03085                      0,03904                     2,3424                     556984,1842
1,03085                      0,0244                     1,464                     557998,186
1,03085                      1,27368                     76,4208                     559012,1878
1,03085                      2,4888                     149,328                     560026,1896
1,03085                      1,28832                     77,2992                     561040,1914
1,03085                      1,2688                     76,128                     562054,1931
1,03085                      1,29808                     77,8848                     563068,1949
1,03085                      1,26392                     75,8352                     564082,1967
1,03085                      1,28832                     77,2992                     565096,1985
1,03085                      1,27368                     76,4208                     566110,2003
1,03085                      1,27856                     76,7136                     567139,8021
1,03085                      0                     0                     568138,2038
1,03085                      1,27856                     76,7136                     569152,2056
1,03085                      1,27368                     76,4208                     570197,4075
1,03085                      0,05368                     3,2208                     571180,2092
1,03085                      1,27856                     76,7136                     572194,211
1,03085                      1,30784                     78,4704                     573223,8128
1,03085                      1,27856                     76,7136                     574222,2145
1,03085                      1,28344                     77,0064                     575236,2163
1,03085                      1,27856                     76,7136                     576265,8181
1,03085                      1,27368                     76,4208                     577264,2199
1,03085                      1,28832                     77,2992                     578278,2216
1,03085                      1,28832                     77,2992                     579323,4235
1,03085                      1,28344                     77,0064                     580306,2252
1,03085                      1,27856                     76,7136                     581320,227
1,03085                      1,2688                     76,128                     582349,8288
1,03085                      1,27368                     76,4208                     583348,2305
1,03085                      1,28832                     77,2992                     584362,2323
1,03085                      1,2688                     76,128                     585407,4342
1,03085                      1,27856                     76,7136                     586390,2359
1,03085                      1,28344                     77,0064                     587404,2377
1,03085                      1,26392                     75,8352                     588433,8395
1,03085                      1,28344                     77,0064                     589432,2412
1,03085                      1,27856                     76,7136                     590446,243
1,03085                      1,28832                     77,2992                     591475,8448
1,03085                      1,28832                     77,2992                     592474,2466
1,03085                      1,28832                     77,2992                     593488,2484
1,03085                      1,27368                     76,4208                     594502,2501
1,03085                      1,25904                     75,5424                     595516,2519
1,03085                      1,27368                     76,4208                     596530,2537
1,03085                      1,2688                     76,128                     597559,8555
1,03085                      1,27856                     76,7136                     598558,2573
1,03085                      1,2932                     77,592                     599572,259
1,03085                      1,27856                     76,7136                     600617,4609
1,03085                      1,2932                     77,592                     601615,8626
1,03085                      1,27856                     76,7136                     602614,2644
1,03085                      1,2932                     77,592                     603628,2662
1,03085                      1,29808                     77,8848                     604642,2679
1,03085                      1,28344                     77,0064                     605656,2697
1,03085                      1,28344                     77,0064                     606701,4716
1,03085                      1,30296                     78,1776                     607684,2733
1,03085                      1,28832                     77,2992                     608698,2751
1,03085                      1,28344                     77,0064                     609743,4769
1,03085                      1,27856                     76,7136                     610726,2786
1,03085                      1,30296                     78,1776                     611740,2804
1,03085                      1,30296                     78,1776                     612769,8822
1,03085                      1,32248                     79,3488                     613768,284
1,03085                      1,28832                     77,2992                     614782,2858
1,03085                      1,32248                     79,3488                     615827,4876
1,03085                      1,29808                     77,8848                     616810,2893
1,03085                      1,30784                     78,4704                     617824,2911
1,03085                      1,29808                     77,8848                     618853,8929
1,03085                      1,31272                     78,7632                     619852,2947
1,03085                      1,31272                     78,7632                     620866,2964
1,03085                      1,30784                     78,4704                     621895,8983
1,03085                      1,2932                     77,592                     622894,3
1,03085                      1,31272                     78,7632                     623908,3018
1,03085                      1,31272                     78,7632                     624953,5036
1,03085                      1,2932                     77,592                     625936,3054
1,03085                      1,32248                     79,3488                     626950,3071
1,03085                      1,3176                     79,056                     627979,9089
1,03085                      1,33712                     80,2272                     628978,3107
1,03085                      1,31272                     78,7632                     629992,3125
1,03085                      1,29808                     77,8848                     631037,5143
1,03085                      1,31272                     78,7632                     632020,316
1,03085                      1,34688                     80,8128                     633034,3178
1,03085                      1,32736                     79,6416                     634063,9196
1,03085                      1,33712                     80,2272                     635062,3214
1,03085                      1,30296                     78,1776                     636076,3232
1,03085                      1,30784                     78,4704                     637105,925
1,03085                      1,30296                     78,1776                     638104,3267
1,03085                      1,33712                     80,2272                     639118,3285
1,03085                      1,30784                     78,4704                     640163,5303
1,03085                      1,34688                     80,8128                     641146,3321
1,03085                      1,30296                     78,1776                     642160,3338
1,03085                      1,33712                     80,2272                     643189,9357
1,03085                      1,29808                     77,8848                     644188,3374
1,03085                      1,33224                     79,9344                     645202,3392
1,03085                      1,30784                     78,4704                     646216,341
1,03085                      1,33712                     80,2272                     647230,3428
1,03085                      1,32248                     79,3488                     648244,3445
1,03085                      1,35664                     81,3984                     649273,9463
1,03085                      1,31272                     78,7632                     650272,3481
1,03085                      1,3176                     79,056                     651286,3499
1,03085                      1,32248                     79,3488                     652315,9517
1,03085                      1,33224                     79,9344                     653314,3534
1,03085                      1,33224                     79,9344                     654328,3552
1,03085                      1,342                     80,52                     655373,5571
1,03085                      1,33224                     79,9344                     656356,3588
1,03085                      1,31272                     78,7632                     657370,3606
1,03085                      1,33712                     80,2272                     658399,9624
1,03085                      1,33224                     79,9344                     659398,3641
1,03085                      1,3176                     79,056                     660412,3659
1,03085                      1,33224                     79,9344                     661457,5677
1,03085                      1,33712                     80,2272                     662440,3695
1,03085                      1,37128                     82,2768                     663454,3712
1,03085                      1,31272                     78,7632                     664483,9731
1,03085                      1,33712                     80,2272                     665482,3748
1,03085                      1,31272                     78,7632                     666496,3766
1,03085                      1,31272                     78,7632                     667510,3784
1,03085                      1,30296                     78,1776                     668524,3802
1,03085                      1,3176                     79,056                     669538,3819
1,03085                      1,31272                     78,7632                     670583,5838
1,03085                      1,3664                     81,984                     671566,3855
1,03085                      1,33712                     80,2272                     672580,3873
1,03085                      1,342                     80,52                     673609,9891
1,03085                      1,33224                     79,9344                     674608,3908
1,03085                      1,36152                     81,6912                     675622,3926
1,03085                      1,32736                     79,6416                     676667,5945
1,03085                      1,36152                     81,6912                     677650,3962
1,03085                      1,342                     80,52                     678664,398
1,03085                      1,33224                     79,9344                     679693,9998
1,03085                      1,29808                     77,8848                     680692,4015
1,03085                      1,36152                     81,6912                     681706,4033
1,03085                      1,32736                     79,6416                     682720,4051
1,03085                      1,37128                     82,2768                     683734,4069
1,03085                      1,342                     80,52                     684748,4086
1,03085                      1,35664                     81,3984                     685762,4104
1,03085                      1,34688                     80,8128                     686776,4122
1,03085                      1,35664                     81,3984                     687790,414
1,03085                      1,34688                     80,8128                     688820,0158
1,03085                      1,36152                     81,6912                     689818,4176
1,03085                      1,32248                     79,3488                     690832,4193
1,03085                      1,37616                     82,5696                     691877,6212
1,03085                      1,35664                     81,3984                     692860,4229
1,03085                      1,38592                     83,1552                     693874,4247
1,03085                      1,33712                     80,2272                     694904,0265
1,03085                      1,38104                     82,8624                     695902,4282
1,03085                      1,33712                     80,2272                     696916,43
1,03085                      1,35664                     81,3984                     697946,0318
1,03085                      1,35664                     81,3984                     698944,4336
1,03085                      1,33224                     79,9344                     699958,4354
1,03085                      1,33712                     80,2272                     701003,6372
1,03085                      1,35176                     81,1056                     701986,4389
1,03085                      1,342                     80,52                     703000,4407
1,03085                      1,37128                     82,2768                     704030,0425
1,03085                      1,34688                     80,8128                     705028,4443
1,03085                      1,33224                     79,9344                     706042,446
1,03085                      1,342                     80,52                     707087,6479
1,03085                      1,33224                     79,9344                     708070,4496
1,03085                      1,34688                     80,8128                     709084,4514
1,03085                      1,33224                     79,9344                     710114,0532
1,03085                      1,36152                     81,6912                     711112,455
1,03085                      1,342                     80,52                     712126,4567
1,03085                      1,342                     80,52                     713156,0585
1,03085                      1,33712                     80,2272                     714154,4603
1,03085                      1,33224                     79,9344                     715168,4621
1,03085                      1,36152                     81,6912                     716213,6639
1,03085                      1,35664                     81,3984                     717196,4656
1,03085                      1,34688                     80,8128                     718210,4674
1,03085                      1,33712                     80,2272                     719240,0692
1,03085                      1,33224                     79,9344                     720238,471
1,03085                      1,34688                     80,8128                     721252,4728
1,03085                      1,32736                     79,6416                     722297,6746
1,03085                      1,37128                     82,2768                     723280,4763
1,03085                      1,37128                     82,2768                     724294,4781
1,03085                      1,3664                     81,984                     725324,0799
1,03085                      1,37128                     82,2768                     726322,4817
1,03085                      1,37616                     82,5696                     727336,4835
1,03085                      1,34688                     80,8128                     728366,0853
1,03085                      1,35176                     81,1056                     729364,487
1,03085                      1,37128                     82,2768                     730378,4888
1,03085                      1,34688                     80,8128                     731423,6906
1,03085                      1,40056                     84,0336                     732406,4924
1,03085                      1,34688                     80,8128                     733420,4941
1,03085                      1,42496                     85,4976                     734450,0959
1,03085                      1,35176                     81,1056                     735448,4977
1,03085                      1,38104                     82,8624                     736462,4995
1,03085                      1,35176                     81,1056                     737507,7013
1,03085                      1,36152                     81,6912                     738490,503
1,03085                      1,35176                     81,1056                     739504,5048
1,03085                      1,38104                     82,8624                     740534,1066
1,03085                      1,3664                     81,984                     741532,5084
1,03085                      1,40056                     84,0336                     742546,5102
1,03085                      1,3664                     81,984                     743576,112
1,03085                      1,35664                     81,3984                     744574,5137
1,03085                      1,3664                     81,984                     745588,5155
1,03085                      1,38104                     82,8624                     746633,7173
1,03085                      1,3664                     81,984                     747616,5191
1,03085                      1,38104                     82,8624                     748630,5209
1,03085                      1,36152                     81,6912                     749660,1227
1,03085                      1,3908                     83,448                     750658,5244
1,03085                      1,39568                     83,7408                     751672,5262
1,03085                      1,36152                     81,6912                     752717,728
1,03085                      1,3908                     83,448                     753700,5298
1,03085                      1,38104                     82,8624                     754714,5315
1,03085                      1,37616                     82,5696                     755744,1333
1,03085                      1,38592                     83,1552                     756742,5351
1,03085                      1,40056                     84,0336                     757756,5369
1,03085                      1,3664                     81,984                     758786,1387
1,03085                      1,42008                     85,2048                     759784,5404
1,03085                      1,37128                     82,2768                     760798,5422
1,03085                      1,3908                     83,448                     761843,7441
1,03085                      1,3908                     83,448                     762826,5458
1,03085                      1,40544                     84,3264                     763840,5476
1,03085                      1,37616                     82,5696                     764870,1494
1,03085                      1,40544                     84,3264                     765868,5511
1,03085                      1,38104                     82,8624                     766882,5529
1,03085                      1,43472                     86,0832                     767927,7547
1,03085                      1,39568                     83,7408                     768910,5565
1,03085                      1,38104                     82,8624                     769924,5583
1,03085                      1,3908                     83,448                     770954,1601
1,03085                      1,39568                     83,7408                     771952,5618
1,03085                      1,39568                     83,7408                     772966,5636
1,03085                      1,3908                     83,448                     773996,1654
1,03085                      1,39568                     83,7408                     774994,5672
1,03085                      1,37128                     82,2768                     776008,5689
1,03085                      1,38104                     82,8624                     777053,7708
1,03085                      1,36152                     81,6912                     778036,5725
1,03085                      1,37616                     82,5696                     779050,5743
1,03085                      1,42008                     85,2048                     780080,1761
1,03085                      1,38592                     83,1552                     781078,5778
1,03085                      1,37128                     82,2768                     782092,5796
1,03085                      1,40544                     84,3264                     783137,7815
1,03085                      1,40056                     84,0336                     784120,5832
1,03085                      1,40544                     84,3264                     785134,585
1,03085                      1,42008                     85,2048                     786164,1868
1,03085                      1,38592                     83,1552                     787162,5885
1,03085                      1,40056                     84,0336                     788176,5903
1,03085                      1,38592                     83,1552                     789206,1921
1,03085                      1,38104                     82,8624                     790204,5939
1,03085                      1,38592                     83,1552                     791218,5957
1,03085                      1,4152                     84,912                     792263,7975
1,03085                      1,38104                     82,8624                     793246,5992
1,03085                      1,38592                     83,1552                     794260,601
1,03085                      1,3908                     83,448                     795290,2028
1,03085                      1,43472                     86,0832                     796288,6046
1,03085                      1,38592                     83,1552                     797302,6063
1,03085                      1,4152                     84,912                     798347,8082
1,03085                      1,37616                     82,5696                     799330,6099
1,03085                      1,39568                     83,7408                     800344,6117
1,03085                      1,37616                     82,5696                     801374,2135
1,03085                      1,42984                     85,7904                     802372,6152
1,03085                      1,40544                     84,3264                     803386,617
1,03085                      1,3908                     83,448                     804416,2188
1,03085                      1,37616                     82,5696                     805414,6206
1,03085                      1,4152                     84,912                     806428,6224
1,03085                      1,41032                     84,6192                     807473,8242
1,03085                      1,3908                     83,448                     808456,6259
1,03085                      1,3664                     81,984                     809470,6277
1,03085                      1,43472                     86,0832                     810500,2295
1,03085                      1,40544                     84,3264                     811529,8313
1,03085                      1,42496                     85,4976                     812512,6331
1,03085                      1,40544                     84,3264                     813557,8349
1,03085                      1,4396                     86,376                     814540,6366
1,03085                      1,35664                     81,3984                     815554,6384
1,03085                      1,4396                     86,376                     816584,2402
1,03085                      1,40056                     84,0336                     817582,642
1,03085                      1,45912                     87,5472                     818596,6437
1,03085                      1,4152                     84,912                     819626,2455
1,03085                      1,41032                     84,6192                     820624,6473
1,03085                      1,42008                     85,2048                     821638,6491
1,03085                      1,42984                     85,7904                     822683,8509
1,03085                      1,40056                     84,0336                     823666,6526
1,03085                      1,39568                     83,7408                     824680,6544
1,03085                      1,40056                     84,0336                     825710,2562
1,03085                      1,40056                     84,0336                     826708,658
1,03085                      1,4152                     84,912                     827722,6598
1,03085                      1,3908                     83,448                     828767,8616
1,03085                      1,42008                     85,2048                     829750,6633
1,03085                      1,42008                     85,2048                     830764,6651
1,03085                      1,40544                     84,3264                     831794,2669
1,03085                      1,39568                     83,7408                     832792,6687
1,03085                      1,38104                     82,8624                     833806,6705
1,03085                      1,40544                     84,3264                     834836,2723
1,03085                      1,41032                     84,6192                     835834,674
1,03085                      1,42496                     85,4976                     836848,6758
1,03085                      1,43472                     86,0832                     837893,8776
1,03085                      1,40544                     84,3264                     838876,6794
1,03085                      1,41032                     84,6192                     839890,6811
1,03085                      1,42496                     85,4976                     840920,2829
1,03085                      1,44448                     86,6688                     841918,6847
1,03085                      1,3908                     83,448                     842932,6865
1,03085                      1,40056                     84,0336                     843977,8883
1,03085                      1,41032                     84,6192                     844960,69
1,03085                      1,39568                     83,7408                     845974,6918
1,03085                      1,40056                     84,0336                     847004,2936
1,03085                      1,41032                     84,6192                     848002,6954
1,03085                      1,41032                     84,6192                     849016,6972
1,03085                      1,44448                     86,6688                     850030,699
1,03085                      1,42496                     85,4976                     851044,7007
1,03085                      1,42496                     85,4976                     852058,7025
1,03085                      1,40056                     84,0336                     853072,7043
1,03085                      1,42496                     85,4976                     854086,7061
1,03085                      1,40544                     84,3264                     855100,7079
1,03085                      1,42496                     85,4976                     856114,7096
1,03085                      1,47864                     88,7184                     857128,7114
1,03085                      1,39568                     83,7408                     858142,7132
1,03085                      1,40544                     84,3264                     859156,715
1,03085                      1,37128                     82,2768                     860170,7168
1,03085                      1,40544                     84,3264                     861184,7185
1,03085                      1,4152                     84,912                     862198,7203
1,03085                      1,43472                     86,0832                     863212,7221
1,03085                      1,42008                     85,2048                     864226,7239
1,03085                      1,42496                     85,4976                     865256,3257
1,03085                      1,43472                     86,0832                     866254,7274
1,03085                      1,44448                     86,6688                     867268,7292
1,03085                      1,42984                     85,7904                     868313,9311
1,03085                      1,43472                     86,0832                     869296,7328
1,03085                      1,40544                     84,3264                     870310,7346
1,03085                      1,41032                     84,6192                     871340,3364
1,03085                      1,45424                     87,2544                     872338,7381
1,03085                      1,42496                     85,4976                     873352,7399
1,03085                      1,40544                     84,3264                     874397,9418
1,03085                      1,4396                     86,376                     875380,7435
1,03085                      1,46888                     88,1328                     876394,7453
1,03085                      1,42984                     85,7904                     877424,3471
1,03085                      1,4152                     84,912                     878422,7488
1,03085                      1,4152                     84,912                     879436,7506
1,03085                      1,44936                     86,9616                     880450,7524
1,03085                      1,44448                     86,6688                     881464,7542
1,03085                      1,42496                     85,4976                     882478,7559
1,03085                      1,4396                     86,376                     883523,9578
1,03085                      1,45424                     87,2544                     884506,7595
1,03085                      1,4396                     86,376                     885520,7613
1,03085                      1,47376                     88,4256                     886550,3631
1,03085                      1,4152                     84,912                     887548,7648
1,03085                      1,45424                     87,2544                     888562,7666
1,03085                      1,4396                     86,376                     889607,9685
1,03085                      1,42008                     85,2048                     890590,7702
1,03085                      1,4396                     86,376                     891604,772
1,03085                      1,42984                     85,7904                     892634,3738
1,03085                      1,44448                     86,6688                     893632,7755
1,03085                      1,42496                     85,4976                     894646,7773
1,03085                      1,47864                     88,7184                     895676,3791
1,03085                      1,43472                     86,0832                     896674,7809
1,03085                      1,47864                     88,7184                     897688,7827
1,03085                      1,42008                     85,2048                     898733,9845
1,03085                      1,42008                     85,2048                     899716,7862
1,03085                      1,42984                     85,7904                     900730,788
1,03085                      1,42984                     85,7904                     901760,3898
1,03085                      1,464                     87,84                     902758,7916
1,03085                      1,44936                     86,9616                     903772,7933
1,03085                      1,42008                     85,2048                     904817,9952
1,03085                      1,41032                     84,6192                     905800,7969
1,03085                      1,42984                     85,7904                     906814,7987
1,03085                      1,44448                     86,6688                     907844,4005
1,03085                      1,4396                     86,376                     908842,8022
1,03085                      1,41032                     84,6192                     909856,804
1,03085                      1,464                     87,84                     910886,4058
1,03085                      1,44936                     86,9616                     911884,8076
1,03085                      1,42008                     85,2048                     912898,8094
1,03085                      1,46888                     88,1328                     913912,8112
1,03085                      1,40544                     84,3264                     914926,8129
1,03085                      1,42984                     85,7904                     915940,8147
1,03085                      1,47376                     88,4256                     916970,4165
1,03085                      1,48352                     89,0112                     917968,8183
1,03085                      1,45424                     87,2544                     918982,8201
1,03085                      1,464                     87,84                     920028,0219
1,03085                      1,41032                     84,6192                     921010,8236
1,03085                      1,45912                     87,5472                     922024,8254
1,03085                      1,45424                     87,2544                     923054,4272
1,03085                      1,48352                     89,0112                     924052,829
1,03085                      1,42984                     85,7904                     925066,8307
1,03085                      1,4396                     86,376                     926096,4326
1,03085                      1,42008                     85,2048                     927094,8343
1,03085                      1,33712                     80,2272                     928108,8361
1,03085                      1,4152                     84,912                     929154,0379
1,03085                      1,4396                     86,376                     930136,8397
1,03085                      1,42008                     85,2048                     931150,8414
1,03085                      1,42496                     85,4976                     932180,4432
1,03085                      1,42008                     85,2048                     933178,845
1,03085                      1,46888                     88,1328                     934192,8468
1,03085                      1,45424                     87,2544                     935206,8486
1,03085                      1,46888                     88,1328                     936220,8503
1,03085                      1,43472                     86,0832                     937234,8521
1,03085                      1,48352                     89,0112                     938264,4539
1,03085                      1,41032                     84,6192                     939262,8557
1,03085                      1,5128                     90,768                     940276,8575
1,03085                      1,44936                     86,9616                     941306,4593
1,03085                      1,464                     87,84                     942304,861
1,03085                      1,4396                     86,376                     943318,8628
1,03085                      1,48352                     89,0112                     944364,0646
1,03085                      1,43472                     86,0832                     945346,8664
1,03085                      1,42496                     85,4976                     946360,8681
1,03085                      1,42984                     85,7904                     947390,47
1,03085                      1,4396                     86,376                     948388,8717
1,03085                      1,43472                     86,0832                     949402,8735
1,03085                      1,42496                     85,4976                     950416,8753
1,03085                      1,4396                     86,376                     951430,8771
1,03085                      1,42008                     85,2048                     952444,8788
1,03085                      1,45424                     87,2544                     953474,4806
1,03085                      1,47376                     88,4256                     954472,8824
1,03085                      1,42984                     85,7904                     955486,8842
1,03085                      1,4396                     86,376                     956516,486
1,03085                      1,4396                     86,376                     957514,8877
1,03085                      1,42984                     85,7904                     958528,8895
1,03085                      1,4396                     86,376                     959574,0914
1,03085                      1,43472                     86,0832                     960556,8931
1,03085                      1,46888                     88,1328                     961570,8949
1,03085                      1,47376                     88,4256                     962584,8966
1,03085                      1,4884                     89,304                     963598,8984
1,03085                      1,42984                     85,7904                     964612,9002
1,03085                      1,4152                     84,912                     965658,102
1,03085                      1,42984                     85,7904                     966640,9038
1,03085                      1,44936                     86,9616                     967654,9055
1,03085                      1,42984                     85,7904                     968684,5074
1,03085                      1,47864                     88,7184                     969682,9091
1,03085                      1,45912                     87,5472                     970696,9109
1,03085                      1,44936                     86,9616                     971710,9127
1,03085                      1,45424                     87,2544                     972724,9145
1,03085                      1,44448                     86,6688                     973754,5163
1,03085                      1,42008                     85,2048                     974752,918
1,03085                      1,43472                     86,0832                     975766,9198
1,03085                      1,4396                     86,376                     976796,5216
1,03085                      1,44448                     86,6688                     977794,9234
1,03085                      1,42496                     85,4976                     978808,9251
1,03085                      1,44936                     86,9616                     979854,127
1,03085                      1,42496                     85,4976                     980836,9287
1,03085                      1,464                     87,84                     981850,9305
1,03085                      1,4396                     86,376                     982864,9323
1,03085                      1,464                     87,84                     983878,934
1,03085                      1,44448                     86,6688                     984892,9358
1,03085                      1,44448                     86,6688                     985938,1377
1,03085                      1,45912                     87,5472                     986920,9394
1,03085                      1,464                     87,84                     987934,9412
1,03085                      1,4396                     86,376                     988964,543
1,03085                      1,44448                     86,6688                     989962,9447
1,03085                      1,45912                     87,5472                     990976,9465
1,03085                      1,46888                     88,1328                     992006,5483
1,03085                      1,45424                     87,2544                     993004,9501
1,03085                      1,4396                     86,376                     994018,9519
1,03085                      1,43472                     86,0832                     995064,1537
1,03085                      1,4396                     86,376                     996046,9554
1,03085                      1,42496                     85,4976                     997060,9572
1,03085                      1,44936                     86,9616                     998074,959
1,03085                      1,47376                     88,4256                     999088,9608
1,03085                      1,49816                     89,8896                     1000102,9625
1,03085                      1,50304                     90,1824                     1001116,9643
1,03085                      1,45424                     87,2544                     1002130,9661
1,03085                      1,44936                     86,9616                     1003144,9679
1,03085                      1,47376                     88,4256                     1004174,5697
1,03085                      1,4396                     86,376                     1005172,9714
1,03085                      1,44448                     86,6688                     1006186,9732
1,03085                      1,44448                     86,6688                     1007216,575
1,03085                      1,46888                     88,1328                     1008214,9768
1,03085                      1,48352                     89,0112                     1009228,9786
1,03085                      1,48352                     89,0112                     1010274,1804
1,03085                      1,42984                     85,7904                     1011256,9821
1,03085                      1,48352                     89,0112                     1012270,9839
1,03085                      1,44936                     86,9616                     1013284,9857
1,03085                      1,4396                     86,376                     1014298,9875
1,03085                      1,48352                     89,0112                     1015312,9893
1,03085                      1,48352                     89,0112                     1016358,1911
1,03085                      1,45424                     87,2544                     1017340,9928
1,03085                      1,47864                     88,7184                     1018354,9946
1,03085                      1,45912                     87,5472                     1019384,5964
1,03085                      1,46888                     88,1328                     1020382,9982
1,03085                      1,42984                     85,7904                     1021396,9999
1,03085                      1,50792                     90,4752                     1022426,6017
1,03085                      1,44936                     86,9616                     1023425,0035
1,03085                      1,4884                     89,304                     1024439,0053
1,03085                      1,43472                     86,0832                     1025484,2071
1,03085                      1,47376                     88,4256                     1026467,0088
1,03085                      1,4396                     86,376                     1027481,0106
1,03085                      1,52256                     91,3536                     1028495,0124
1,03085                      1,48352                     89,0112                     1029509,0142
1,03085                      1,45424                     87,2544                     1030523,016
1,03085                      1,45424                     87,2544                     1031568,2178
1,03085                      1,4396                     86,376                     1032551,0195
1,03085                      1,45912                     87,5472                     1033565,0213
1,03085                      1,45912                     87,5472                     1034594,6231
1,03085                      1,44448                     86,6688                     1035593,0249
1,03085                      1,45424                     87,2544                     1036607,0267
1,03085                      1,44448                     86,6688                     1037636,6285
1,03085                      1,44936                     86,9616                     1038635,0302
1,03085                      1,50304                     90,1824                     1039649,032
1,03085                      1,47864                     88,7184                     1040663,0338
1,03085                      1,44448                     86,6688                     1041677,0356
1,03085                      1,464                     87,84                     1042691,0373
1,03085                      1,42984                     85,7904                     1043720,6391
1,03085                      1,42984                     85,7904                     1044719,0409
1,03085                      1,46888                     88,1328                     1045733,0427
1,03085                      1,4396                     86,376                     1046778,2445
1,03085                      1,45912                     87,5472                     1047761,0462
1,03085                      1,464                     87,84                     1048775,048
1,03085                      1,464                     87,84                     1049804,6498
1,03085                      1,4396                     86,376                     1050803,0516
1,03085                      1,44448                     86,6688                     1051817,0534
1,03085                      1,47864                     88,7184                     1052846,6552
1,03085                      1,45912                     87,5472                     1053845,0569
1,03085                      1,45424                     87,2544                     1054859,0587
1,03085                      1,464                     87,84                     1055904,2605
1,03085                      1,42496                     85,4976                     1056887,0623
1,03085                      1,45912                     87,5472                     1057901,0641
1,03085                      1,47376                     88,4256                     1058930,6659
1,03085                      1,4396                     86,376                     1059929,0676
1,03085                      1,464                     87,84                     1060943,0694
1,03085                      1,48352                     89,0112                     1061988,2712
1,03085                      1,44448                     86,6688                     1062971,073
1,03085                      1,47376                     88,4256                     1063985,0747
1,03085                      1,42008                     85,2048                     1065014,6766
1,03085                      1,42984                     85,7904                     1066013,0783
1,03085                      1,464                     87,84                     1067027,0801
1,03085                      1,4396                     86,376                     1068041,0819
1,03085                      1,42496                     85,4976                     1069055,0836
1,03085                      1,49328                     89,5968                     1070069,0854
1,03085                      1,43472                     86,0832                     1071114,2873
1,03085                      1,49328                     89,5968                     1072097,089
1,03085                      1,464                     87,84                     1073111,0908
1,03085                      1,44448                     86,6688                     1074140,6926
1,03085                      1,464                     87,84                     1075139,0943
1,03085                      1,44448                     86,6688                     1076153,0961
1,03085                      1,464                     87,84                     1077229,498
1,03085                      1,43472                     86,0832                     1078181,0997
1,03085                      1,44936                     86,9616                     1079195,1015
1,03085                      1,464                     87,84                     1080224,7033
1,03085                      1,5128                     90,768                     1081223,105
1,03085                      1,464                     87,84                     1082237,1068
1,03085                      1,42008                     85,2048                     1083251,1086
1,03085                      1,44448                     86,6688                     1084265,1104
1,03085                      1,464                     87,84                     1085294,7122
1,03085                      1,464                     87,84                     1086293,1139
1,03085                      1,44448                     86,6688                     1087307,1157
1,03085                      1,46888                     88,1328                     1088336,7175
1,03085                      1,464                     87,84                     1089335,1193
1,03085                      1,45912                     87,5472                     1090349,121
1,03085                      1,45424                     87,2544                     1091394,3229
1,03085                      1,4396                     86,376                     1092377,1246
1,03085                      1,46888                     88,1328                     1093391,1264
1,03085                      1,42984                     85,7904                     1094405,1282
1,03085                      1,4884                     89,304                     1095419,13
1,03085                      1,43472                     86,0832                     1096433,1317
1,03085                      1,46888                     88,1328                     1097478,3336
1,03085                      1,4152                     84,912                     1098461,1353
1,03085                      1,46888                     88,1328                     1099475,1371
1,03085                      1,43472                     86,0832                     1100504,7389
1,03085                      1,47864                     88,7184                     1101503,1406
1,03085                      1,4396                     86,376                     1102517,1424
1,03085                      1,45912                     87,5472                     1103546,7442
1,03085                      1,42984                     85,7904                     1104545,146
1,03085                      1,48352                     89,0112                     1105559,1478
1,03085                      1,4396                     86,376                     1106573,1495
1,03085                      1,464                     87,84                     1107587,1513
1,03085                      1,44448                     86,6688                     1108601,1531
1,03085                      1,45912                     87,5472                     1109630,7549
1,03085                      1,43472                     86,0832                     1110629,1567
1,03085                      1,45912                     87,5472                     1111643,1584
1,03085                      1,45912                     87,5472                     1112688,3603
1,03085                      1,464                     87,84                     1113671,162
1,03085                      1,44936                     86,9616                     1114685,1638
1,03085                      1,464                     87,84                     1115714,7656
1,03085                      1,47864                     88,7184                     1116713,1674
1,03085                      1,44448                     86,6688                     1117727,1691
1,03085                      1,45424                     87,2544                     1118756,7709
1,03085                      1,42984                     85,7904                     1119755,1727
1,03085                      1,42008                     85,2048                     1120769,1745
1,03085                      1,464                     87,84                     1121814,3763
1,03085                      1,40544                     84,3264                     1122797,178
1,03085                      1,45912                     87,5472                     1123811,1798
1,03085                      1,44936                     86,9616                     1124840,7816
1,03085                      1,42496                     85,4976                     1125839,1834
1,03085                      1,45912                     87,5472                     1126853,1852
1,03085                      1,46888                     88,1328                     1127867,1869
1,03085                      1,464                     87,84                     1128881,1887
1,03085                      1,50304                     90,1824                     1129895,1905
1,03085                      1,44448                     86,6688                     1130909,1923
1,03085                      1,42984                     85,7904                     1131923,1941
1,03085                      1,45912                     87,5472                     1132937,1959
1,03085                      1,43472                     86,0832                     1133966,7977
1,03085                      1,44448                     86,6688                     1134965,1994
1,03085                      1,4396                     86,376                     1135979,2012
1,03085                      1,464                     87,84                     1137024,403
1,03085                      1,45912                     87,5472                     1138007,2048
1,03085                      1,42496                     85,4976                     1139021,2065
1,03085                      1,46888                     88,1328                     1140050,8083
1,03085                      1,464                     87,84                     1141049,2101
1,03085                      1,43472                     86,0832                     1142063,2119
1,03085                      1,43472                     86,0832                     1143108,4137
1,03085                      1,39568                     83,7408                     1144091,2154
1,03085                      1,44936                     86,9616                     1145105,2172
1,03085                      1,47864                     88,7184                     1146134,819
1,03085                      1,42984                     85,7904                     1147133,2208
1,03085                      1,48352                     89,0112                     1148147,2226
1,03085                      1,464                     87,84                     1149161,2243
1,03085                      1,47376                     88,4256                     1150175,2261
1,03085                      1,46888                     88,1328                     1151189,2279
1,03085                      1,42008                     85,2048                     1152203,2297
1,03085                      1,45424                     87,2544                     1153217,2315
1,03085                      1,4396                     86,376                     1154231,2333
1,03085                      1,47376                     88,4256                     1155245,235
1,03085                      1,4152                     84,912                     1156259,2368
1,03085                      1,49328                     89,5968                     1157273,2386
1,03085                      1,44448                     86,6688                     1158287,2404
1,03085                      1,47864                     88,7184                     1159301,2422
1,03085                      1,4396                     86,376                     1160315,2439
1,03085                      1,48352                     89,0112                     1161329,2457
1,03085                      1,47376                     88,4256                     1162343,2475
1,03085                      1,45424                     87,2544                     1163357,2493
1,03085                      1,43472                     86,0832                     1164371,2511
1,03085                      1,49328                     89,5968                     1165385,2528
1,03085                      1,44448                     86,6688                     1166399,2546
1,03085                      1,48352                     89,0112                     1167444,4565
1,03085                      1,43472                     86,0832                     1168427,2582
1,03085                      1,43472                     86,0832                     1169441,26
1,03085                      1,45424                     87,2544                     1170470,8618
1,03085                      1,47864                     88,7184                     1171469,2635
1,03085                      1,44936                     86,9616                     1172483,2653
1,03085                      1,47864                     88,7184                     1173497,2671
1,03085                      1,47376                     88,4256                     1174511,2689
1,03085                      1,44936                     86,9616                     1175525,2707
1,03085                      1,4884                     89,304                     1176554,8725
1,03085                      1,464                     87,84                     1177553,2742
1,03085                      1,43472                     86,0832                     1178567,276
1,03085                      1,464                     87,84                     1179596,8778
1,03085                      1,44448                     86,6688                     1180595,2796
1,03085                      1,47376                     88,4256                     1181609,2813
1,03085                      1,42984                     85,7904                     1182654,4832
1,03085                      1,44448                     86,6688                     1183637,2849
1,03085                      1,47864                     88,7184                     1184651,2867
1,03085                      1,47864                     88,7184                     1185680,8885
1,03085                      1,46888                     88,1328                     1186679,2902
1,03085                      1,47864                     88,7184                     1187693,292
1,03085                      1,43472                     86,0832                     1188738,4939
1,03085                      1,47376                     88,4256                     1189721,2956
1,03085                      1,47376                     88,4256                     1190735,2974
1,03085                      1,4396                     86,376                     1191764,8992
1,03085                      1,42984                     85,7904                     1192763,3009
1,03085                      1,51768                     91,0608                     1193777,3027
1,03085                      1,47376                     88,4256                     1194791,3045
1,03085                      1,43472                     86,0832                     1195805,3063
1,03085                      1,45912                     87,5472                     1196819,3081
1,03085                      1,4396                     86,376                     1197864,5099
1,03085                      1,48352                     89,0112                     1198847,3116
1,03085                      1,49328                     89,5968                     1199861,3134
1,03085                      1,45912                     87,5472                     1200890,9152
1,03085                      1,50792                     90,4752                     1201889,317
1,03085                      1,44936                     86,9616                     1202903,3187
1,03085                      1,42984                     85,7904                     1203948,5206
1,03085                      1,45912                     87,5472                     1204931,3223
1,03085                      1,52744                     91,6464                     1205945,3241
1,03085                      1,46888                     88,1328                     1206959,3259
1,03085                      1,50304                     90,1824                     1207973,3276
1,03085                      1,44936                     86,9616                     1208987,3294
1,03085                      1,49328                     89,5968                     1210016,9312
1,03085                      1,44936                     86,9616                     1211015,333
1,03085                      1,52744                     91,6464                     1212029,3348
1,03085                      1,44936                     86,9616                     1213074,5366
1,03085                      1,51768                     91,0608                     1214057,3383
1,03085                      1,45912                     87,5472                     1215071,3401
1,03085                      1,52256                     91,3536                     1216100,9419
1,03085                      1,45424                     87,2544                     1217099,3437
1,03085                      1,49328                     89,5968                     1218113,3455
1,03085                      1,4396                     86,376                     1219158,5473
1,03085                      1,5128                     90,768                     1220141,349
1,03085                      1,45424                     87,2544                     1221155,3508
1,03085                      1,46888                     88,1328                     1222184,9526
1,03085                      1,48352                     89,0112                     1223183,3544
1,03085                      1,44448                     86,6688                     1224197,3561
1,03085                      1,42984                     85,7904                     1225226,9579
1,03085                      1,44448                     86,6688                     1226225,3597
1,03085                      1,45424                     87,2544                     1227239,3615
1,03085                      1,40544                     84,3264                     1228284,5633
1,03085                      1,46888                     88,1328                     1229267,365
1,03085                      1,47376                     88,4256                     1230281,3668
1,03085                      1,49816                     89,8896                     1231310,9686
1,03085                      1,464                     87,84                     1232309,3704
1,03085                      1,44448                     86,6688                     1233323,3722
1,03085                      1,46888                     88,1328                     1234368,574
1,03085                      1,47376                     88,4256                     1235351,3757
1,03085                      1,4884                     89,304                     1236365,3775
1,03085                      1,4396                     86,376                     1237394,9793
1,03085                      1,47376                     88,4256                     1238393,3811
1,03085                      1,45424                     87,2544                     1239407,3829
1,03085                      1,47864                     88,7184                     1240436,9847
1,03085                      1,45912                     87,5472                     1241435,3864
1,03085                      1,45912                     87,5472                     1242449,3882
1,03085                      1,45424                     87,2544                     1243494,59
1,03085                      1,42008                     85,2048                     1244477,3918
1,03085                      1,49816                     89,8896                     1245491,3935
1,03085                      1,44936                     86,9616                     1246520,9953
1,03085                      1,42008                     85,2048                     1247519,3971
1,03085                      1,45912                     87,5472                     1248533,3989
1,03085                      1,50304                     90,1824                     1249578,6007
1,03085                      1,42984                     85,7904                     1250561,4024
1,03085                      1,42984                     85,7904                     1251575,4042
1,03085                      1,464                     87,84                     1252605,006
1,03085                      1,4884                     89,304                     1253603,4078
1,03085                      1,47376                     88,4256                     1254617,4096
1,03085                      1,44448                     86,6688                     1255647,0114
1,03085                      1,464                     87,84                     1256645,4131
1,03085                      1,45912                     87,5472                     1257659,4149
1,03085                      1,47864                     88,7184                     1258704,6167
1,03085                      1,464                     87,84                     1259687,4185
1,03085                      1,47376                     88,4256                     1260701,4203
1,03085                      1,45912                     87,5472                     1261731,0221
1,03085                      1,47376                     88,4256                     1262729,4238
1,03085                      1,47376                     88,4256                     1263743,4256
1,03085                      1,464                     87,84                     1264788,6274
1,03085                      1,48352                     89,0112                     1265771,4292
1,03085                      1,48352                     89,0112                     1266785,4309
1,03085                      1,49816                     89,8896                     1267815,0328
1,03085                      1,45424                     87,2544                     1268813,4345
1,03085                      1,45912                     87,5472                     1269827,4363
1,03085                      1,44448                     86,6688                     1270857,0381
1,03085                      1,46888                     88,1328                     1271855,4398
1,03085                      1,46888                     88,1328                     1272869,4416
1,03085                      1,45912                     87,5472                     1273914,6435
1,03085                      1,464                     87,84                     1274897,4452
1,03085                      1,52744                     91,6464                     1275911,447
1,03085                      1,464                     87,84                     1276941,0488
1,03085                      1,50304                     90,1824                     1277939,4505
1,03085                      1,45912                     87,5472                     1278953,4523
1,03085                      1,48352                     89,0112                     1279998,6542
1,03085                      1,4884                     89,304                     1280981,4559
1,03085                      1,50304                     90,1824                     1281995,4577
1,03085                      1,4884                     89,304                     1283025,0595
1,03085                      1,4884                     89,304                     1284023,4612
1,03085                      1,47376                     88,4256                     1285037,463
1,03085                      1,5128                     90,768                     1286067,0648
1,03085                      1,42008                     85,2048                     1287065,4666
1,03085                      1,50304                     90,1824                     1288079,4683
1,03085                      1,45424                     87,2544                     1289124,6702
1,03085                      1,49816                     89,8896                     1290107,4719
1,03085                      1,4396                     86,376                     1291121,4737
1,03085                      1,5372                     92,232                     1292151,0755
1,03085                      1,44448                     86,6688                     1293149,4772
1,03085                      1,4884                     89,304                     1294163,479
1,03085                      1,47864                     88,7184                     1295208,6809
1,03085                      1,49328                     89,5968                     1296191,4826
1,03085                      1,46888                     88,1328                     1297205,4844
1,03085                      1,4884                     89,304                     1298219,4862
1,03085                      1,45912                     87,5472                     1299233,4879
1,03085                      1,52256                     91,3536                     1300247,4897
1,03085                      1,4884                     89,304                     1301277,0915
1,03085                      1,4884                     89,304                     1302275,4933
1,03085                      1,44448                     86,6688                     1303289,4951
1,03085                      1,4884                     89,304                     1304334,6969
1,03085                      1,44936                     86,9616                     1305317,4986
1,03085                      1,464                     87,84                     1306331,5004
1,03085                      1,47864                     88,7184                     1307361,1022
1,03085                      1,42984                     85,7904                     1308359,504
1,03085                      1,48352                     89,0112                     1309373,5057
1,03085                      1,48352                     89,0112                     1310418,7076
1,03085                      1,4884                     89,304                     1311401,5093
1,03085                      1,464                     87,84                     1312415,5111
1,03085                      1,48352                     89,0112                     1313445,1129
1,03085                      1,48352                     89,0112                     1314443,5146
1,03085                      1,41032                     84,6192                     1315457,5164
1,03085                      1,50792                     90,4752                     1316487,1182
1,03085                      1,464                     87,84                     1317485,52
1,03085                      1,49816                     89,8896                     1318499,5218
1,03085                      1,49816                     89,8896                     1319544,7236
1,03085                      1,48352                     89,0112                     1320527,5253
1,03085                      1,47376                     88,4256                     1321541,5271
1,03085                      1,49328                     89,5968                     1322571,1289
1,03085                      1,45424                     87,2544                     1323569,5307
1,03085                      1,53232                     91,9392                     1324583,5325
1,03085                      1,44936                     86,9616                     1325628,7343
1,03085                      1,47376                     88,4256                     1326611,536
1,03085                      1,4884                     89,304                     1327625,5378
1,03085                      1,47376                     88,4256                     1328655,1396
1,03085                      1,47864                     88,7184                     1329653,5414
1,03085                      1,48352                     89,0112                     1330667,5431
1,03085                      1,47376                     88,4256                     1331697,145
1,03085                      1,49816                     89,8896                     1332695,5467
1,03085                      1,45424                     87,2544                     1333709,5485
1,03085                      1,4884                     89,304                     1334754,7503
1,03085                      1,44936                     86,9616                     1335737,5521
1,03085                      1,4884                     89,304                     1336751,5538
1,03085                      1,47864                     88,7184                     1337781,1556
1,03085                      1,48352                     89,0112                     1338779,5574
1,03085                      1,47376                     88,4256                     1339793,5592
1,03085                      1,464                     87,84                     1340838,761
1,03085                      1,49328                     89,5968                     1341821,5627
1,03085                      1,47864                     88,7184                     1342835,5645
1,03085                      1,464                     87,84                     1343865,1663
1,03085                      1,47376                     88,4256                     1344863,5681
1,03085                      1,44936                     86,9616                     1345877,5699
1,03085                      1,46888                     88,1328                     1346907,1717
1,03085                      1,46888                     88,1328                     1347905,5734
1,03085                      1,47864                     88,7184                     1348919,5752
1,03085                      1,46888                     88,1328                     1349964,777
1,03085                      1,47864                     88,7184                     1350947,5788
1,03085                      1,45424                     87,2544                     1351961,5805
1,03085                      1,45424                     87,2544                     1352991,1824
1,03085                      1,46888                     88,1328                     1353989,5841
1,03085                      1,46888                     88,1328                     1355003,5859
1,03085                      1,49816                     89,8896                     1356048,7877
1,03085                      1,49328                     89,5968                     1357031,5895
1,03085                      1,50304                     90,1824                     1358045,5912
1,03085                      1,4884                     89,304                     1359075,193
1,03085                      1,49816                     89,8896                     1360073,5948
1,03085                      1,464                     87,84                     1361087,5966
1,03085                      1,464                     87,84                     1362117,1984
1,03085                      1,464                     87,84                     1363115,6001
1,03085                      1,46888                     88,1328                     1364129,6019
1,03085                      1,49328                     89,5968                     1365174,8038
1,03085                      1,5128                     90,768                     1366157,6055
1,03085                      1,47864                     88,7184                     1367171,6073
1,03085                      1,51768                     91,0608                     1368201,2091
1,03085                      1,44448                     86,6688                     1369199,6108
1,03085                      1,53232                     91,9392                     1370213,6126
1,03085                      1,45912                     87,5472                     1371258,8144
1,03085                      1,49816                     89,8896                     1372241,6162
1,03085                      1,49816                     89,8896                     1373255,6179
1,03085                      1,52256                     91,3536                     1374285,2198
1,03085                      1,50792                     90,4752                     1375283,6215
1,03085                      1,47864                     88,7184                     1376297,6233
1,03085                      1,46888                     88,1328                     1377327,2251
1,03085                      1,50792                     90,4752                     1378325,6269
1,03085                      1,45424                     87,2544                     1379339,6286
1,03085                      1,48352                     89,0112                     1380384,8305
1,03085                      1,4152                     84,912                     1381367,6322
1,03085                      1,464                     87,84                     1382381,634
1,03085                      1,46888                     88,1328                     1383411,2358
1,03085                      1,50304                     90,1824                     1384409,6375
1,03085                      1,47864                     88,7184                     1385423,6393
1,03085                      1,50304                     90,1824                     1386468,8412
1,03085                      1,45912                     87,5472                     1387451,6429
1,03085                      1,44448                     86,6688                     1388465,6447
1,03085                      1,48352                     89,0112                     1389495,2465
1,03085                      1,49328                     89,5968                     1390509,2483
1,03085                      1,4884                     89,304                     1391523,25
1,03085                      1,4396                     86,376                     1392568,4519
1,03085                      1,47376                     88,4256                     1393551,2536
1,03085                      1,4884                     89,304                     1394565,2554
1,03085                      1,47864                     88,7184                     1395594,8572
1,03085                      1,45424                     87,2544                     1396593,2589
1,03085                      1,47376                     88,4256                     1397607,2607
1,03085                      1,48352                     89,0112                     1398652,4626
1,03085                      1,4884                     89,304                     1399635,2643
1,03085                      1,4884                     89,304                     1400649,2661
1,03085                      1,45912                     87,5472                     1401678,8679
1,03085                      1,50792                     90,4752                     1402677,2696
1,03085                      1,45912                     87,5472                     1403691,2714
1,03085                      1,47376                     88,4256                     1404736,4732
1,03085                      1,49328                     89,5968                     1405719,275
1,03085                      1,52744                     91,6464                     1406733,2767
1,03085                      1,5128                     90,768                     1407778,4786
1,03085                      1,50304                     90,1824                     1408761,2803
1,03085                      1,48352                     89,0112                     1409775,2821
1,03085                      1,45912                     87,5472                     1410804,8839
1,03085                      1,46888                     88,1328                     1411803,2857
1,03085                      1,49816                     89,8896                     1412817,2874
1,03085                      1,48352                     89,0112                     1413862,4893
1,03085                      1,49816                     89,8896                     1414845,291
1,03085                      1,45912                     87,5472                     1415859,2928
1,03085                      1,49328                     89,5968                     1416873,2946
1,03085                      1,47864                     88,7184                     1417887,2963
1,03085                      1,49328                     89,5968                     1418932,4982
1,03085                      1,47376                     88,4256                     1419915,2999
1,03085                      1,50792                     90,4752                     1420929,3017
1,03085                      1,47376                     88,4256                     1421958,9035
1,03085                      1,52256                     91,3536                     1422957,3052
1,03085                      1,46888                     88,1328                     1423971,307
1,03085                      1,5372                     92,232                     1425016,5089
1,03085                      1,45912                     87,5472                     1425999,3106
1,03085                      1,54696                     92,8176                     1427013,3124
1,03085                      1,47864                     88,7184                     1428058,5142
1,03085                      1,49816                     89,8896                     1429041,3159
1,03085                      1,47376                     88,4256                     1430055,3177
1,03085                      1,51768                     91,0608                     1431084,9195
1,03085                      1,49816                     89,8896                     1432083,3213
1,03085                      1,49816                     89,8896                     1433097,3231
1,03085                      1,49816                     89,8896                     1434142,5249
1,03085                      1,49328                     89,5968                     1435125,3266
1,03085                      1,45912                     87,5472                     1436139,3284
1,03085                      1,47864                     88,7184                     1437168,9302
1,03085                      1,47864                     88,7184                     1438167,332
1,03085                      1,47864                     88,7184                     1439181,3337
1,03085                      1,48352                     89,0112                     1440226,5356
1,03085                      1,47864                     88,7184                     1441209,3373
1,03085                      1,44936                     86,9616                     1442223,3391
1,03085                      1,47376                     88,4256                     1443268,5409
1,03085                      1,48352                     89,0112                     1444251,3426
1,03085                      1,5128                     90,768                     1445265,3444
1,03085                      1,50304                     90,1824                     1446294,9462
1,03085                      1,49328                     89,5968                     1447293,348
1,03085                      1,47864                     88,7184                     1448307,3498
1,03085                      1,47864                     88,7184                     1449321,3515
1,03085                      1,46888                     88,1328                     1450335,3533
1,03085                      1,51768                     91,0608                     1451349,3551
1,03085                      1,52256                     91,3536                     1452363,3569
1,03085                      1,50304                     90,1824                     1453377,3587
1,03085                      1,49328                     89,5968                     1454391,3605
1,03085                      1,47864                     88,7184                     1455405,3622
1,03085                      1,50304                     90,1824                     1456419,364
1,03085                      1,47864                     88,7184                     1457433,3658
1,03085                      1,46888                     88,1328                     1458447,3676
1,03085                      1,4884                     89,304                     1459461,3694
1,03085                      1,4884                     89,304                     1460475,3711
1,03085                      1,46888                     88,1328                     1461489,3729
1,03085                      1,47864                     88,7184                     1462503,3747
1,03085                      1,45912                     87,5472                     1463517,3765
1,03085                      1,48352                     89,0112                     1464531,3783
1,03085                      1,49816                     89,8896                     1465545,38
1,03085                      1,49816                     89,8896                     1466559,3818
1,03085                      1,53232                     91,9392                     1467588,9836
1,03085                      1,49328                     89,5968                     1468587,3854
1,03085                      1,4884                     89,304                     1469601,3872
1,03085                      1,4884                     89,304                     1470646,589
1,03085                      1,47864                     88,7184                     1471629,3907
1,03085                      1,50304                     90,1824                     1472643,3925
1,03085                      1,4884                     89,304                     1473688,5943
1,03085                      1,47376                     88,4256                     1474671,3961
1,03085                      1,48352                     89,0112                     1475685,3979
1,03085                      1,49328                     89,5968                     1476714,9997
1,03085                      1,48352                     89,0112                     1477713,4014
1,03085                      1,46888                     88,1328                     1478727,4032
1,03085                      1,4884                     89,304                     1479772,605
1,03085                      1,50792                     90,4752                     1480755,4068
1,03085                      1,4884                     89,304                     1481769,4085
1,03085                      1,47864                     88,7184                     1482799,0104
1,03085                      1,47864                     88,7184                     1483797,4121
1,03085                      1,51768                     91,0608                     1484811,4139
1,03085                      1,52256                     91,3536                     1485856,6157
1,03085                      1,53232                     91,9392                     1486839,4174
1,03085                      1,45912                     87,5472                     1487853,4192
1,03085                      1,52744                     91,6464                     1488883,021
1,03085                      1,49816                     89,8896                     1489881,4228
1,03085                      1,53232                     91,9392                     1490895,4246
1,03085                      1,47376                     88,4256                     1491925,0264
1,03085                      1,50792                     90,4752                     1492923,4281
1,03085                      1,4884                     89,304                     1493937,4299
1,03085                      1,5128                     90,768                     1494982,6317
1,03085                      1,47376                     88,4256                     1495965,4335
1,03085                      1,5372                     92,232                     1496979,4353
1,03085                      1,4884                     89,304                     1498009,0371
1,03085                      1,52256                     91,3536                     1499007,4388
1,03085                      1,50792                     90,4752                     1500021,4406
1,03085                      1,52256                     91,3536                     1501066,6424
1,03085                      1,47376                     88,4256                     1502049,4442
1,03085                      1,5128                     90,768                     1503063,4459
1,03085                      1,47864                     88,7184                     1504093,0478
1,03085                      1,5372                     92,232                     1505091,4495
1,03085                      1,48352                     89,0112                     1506105,4513
1,03085                      1,53232                     91,9392                     1507135,0531
1,03085                      1,47864                     88,7184                     1508133,4548
1,03085                      1,54208                     92,5248                     1509147,4566
1,03085                      1,49328                     89,5968                     1510192,6585
1,03085                      1,4884                     89,304                     1511175,4602
1,03085                      1,5128                     90,768                     1512189,462
1,03085                      1,4884                     89,304                     1513219,0638
1,03085                      1,50304                     90,1824                     1514217,4655
1,03085                      1,52744                     91,6464                     1515231,4673
1,03085                      1,5128                     90,768                     1516276,6692
1,03085                      1,50304                     90,1824                     1517259,4709
1,03085                      1,5128                     90,768                     1518273,4727
1,03085                      1,49328                     89,5968                     1519303,0745
1,03085                      1,50792                     90,4752                     1520301,4762
1,03085                      1,50792                     90,4752                     1521315,478
1,03085                      1,49816                     89,8896                     1522345,0798
1,03085                      1,464                     87,84                     1523343,4816
1,03085                      1,50304                     90,1824                     1524357,4833
1,03085                      1,52256                     91,3536                     1525402,6852
1,03085                      1,47864                     88,7184                     1526385,4869
1,03085                      1,47864                     88,7184                     1527399,4887
1,03085                      1,49816                     89,8896                     1528429,0905
1,03085                      1,54208                     92,5248                     1529427,4922
1,03085                      1,5128                     90,768                     1530441,494
1,03085                      1,5128                     90,768                     1531486,6959
1,03085                      1,47864                     88,7184                     1532469,4976
1,03085                      1,52256                     91,3536                     1533483,4994
1,03085                      1,47864                     88,7184                     1534513,1012
1,03085                      1,5372                     92,232                     1535511,5029
1,03085                      1,51768                     91,0608                     1536525,5047
1,03085                      1,47376                     88,4256                     1537555,1065
1,03085                      1,4884                     89,304                     1538553,5083
1,03085                      1,52744                     91,6464                     1539567,5101
1,03085                      1,50792                     90,4752                     1540612,7119
1,03085                      1,51768                     91,0608                     1541595,5136
1,03085                      1,53232                     91,9392                     1542609,5154
1,03085                      1,54208                     92,5248                     1543639,1172
1,03085                      1,50792                     90,4752                     1544637,519
1,03085                      1,54208                     92,5248                     1545651,5207
1,03085                      1,50304                     90,1824                     1546696,7226
1,03085                      1,55672                     93,4032                     1547679,5243
1,03085                      1,4884                     89,304                     1548693,5261
1,03085                      1,49816                     89,8896                     1549723,1279
1,03085                      1,50792                     90,4752                     1550721,5296
1,03085                      1,5128                     90,768                     1551735,5314
1,03085                      1,51768                     91,0608                     1552765,1332
1,03085                      1,51768                     91,0608                     1553763,535
1,03085                      1,49328                     89,5968                     1554777,5368
1,03085                      1,53232                     91,9392                     1555822,7386
1,03085                      1,50304                     90,1824                     1556805,5403
1,03085                      1,5128                     90,768                     1557819,5421
1,03085                      1,48352                     89,0112                     1558849,1439
1,03085                      1,46888                     88,1328                     1559847,5457
1,03085                      1,4884                     89,304                     1560861,5475
1,03085                      1,46888                     88,1328                     1561906,7493
1,03085                      1,53232                     91,9392                     1562889,551
1,03085                      1,49816                     89,8896                     1563903,5528
1,03085                      1,50304                     90,1824                     1564933,1546
1,03085                      1,5128                     90,768                     1565931,5564
1,03085                      1,56648                     93,9888                     1566945,5581
1,03085                      1,51768                     91,0608                     1567975,16
1,03085                      1,5128                     90,768                     1568973,5617
1,03085                      1,49328                     89,5968                     1569987,5635
1,03085                      1,4884                     89,304                     1571032,7653
1,03085                      1,48352                     89,0112                     1572015,5671
1,03085                      1,52744                     91,6464                     1573029,5688
1,03085                      1,49816                     89,8896                     1574059,1706
1,03085                      1,52744                     91,6464                     1575057,5724
1,03085                      1,48352                     89,0112                     1576071,5742
1,03085                      1,52256                     91,3536                     1577116,776
1,03085                      1,49328                     89,5968                     1578099,5777
1,03085                      1,50304                     90,1824                     1579113,5795
1,03085                      1,49816                     89,8896                     1580143,1813
1,03085                      1,49816                     89,8896                     1581141,5831
1,03085                      1,47864                     88,7184                     1582155,5849
1,03085                      1,52744                     91,6464                     1583185,1867
1,03085                      1,4884                     89,304                     1584183,5884
1,03085                      1,51768                     91,0608                     1585197,5902
1,03085                      1,49816                     89,8896                     1586242,792
1,03085                      1,52256                     91,3536                     1587225,5938
1,03085                      1,51768                     91,0608                     1588239,5955
1,03085                      1,5372                     92,232                     1589269,1974
1,03085                      1,4884                     89,304                     1590267,5991
1,03085                      1,52744                     91,6464                     1591281,6009
1,03085                      1,47376                     88,4256                     1592326,8027
1,03085                      1,51768                     91,0608                     1593309,6045
1,03085                      1,4884                     89,304                     1594323,6062
1,03085                      1,5128                     90,768                     1595353,208
1,03085                      1,4884                     89,304                     1596351,6098
1,03085                      1,54208                     92,5248                     1597365,6116
1,03085                      1,50304                     90,1824                     1598395,2134
1,03085                      1,4884                     89,304                     1599393,6151
1,03085                      1,49328                     89,5968                     1600407,6169
1,03085                      1,49816                     89,8896                     1601452,8188
1,03085                      1,51768                     91,0608                     1602435,6205
1,03085                      1,52256                     91,3536                     1603449,6223
1,03085                      1,50792                     90,4752                     1604479,2241
1,03085                      1,51768                     91,0608                     1605477,6258
1,03085                      1,50792                     90,4752                     1606491,6276
1,03085                      1,50304                     90,1824                     1607536,8294
1,03085                      1,49328                     89,5968                     1608519,6312
1,03085                      1,54208                     92,5248                     1609533,6329
1,03085                      1,49328                     89,5968                     1610563,2348
1,03085                      1,49328                     89,5968                     1611561,6365
1,03085                      1,50304                     90,1824                     1612575,6383
1,03085                      1,51768                     91,0608                     1613605,2401
1,03085                      1,5372                     92,232                     1614603,6419
1,03085                      1,54696                     92,8176                     1615617,6436
1,03085                      1,49328                     89,5968                     1616662,8455
1,03085                      1,51768                     91,0608                     1617645,6472
1,03085                      1,5128                     90,768                     1618659,649
1,03085                      1,52744                     91,6464                     1619689,2508
1,03085                      1,4884                     89,304                     1620687,6525
1,03085                      1,52256                     91,3536                     1621701,6543
1,03085                      1,50304                     90,1824                     1622746,8562
1,03085                      1,54696                     92,8176                     1623729,6579
1,03085                      1,51768                     91,0608                     1624743,6597
1,03085                      1,54208                     92,5248                     1625773,2615
1,03085                      1,48352                     89,0112                     1626771,6632
1,03085                      1,52256                     91,3536                     1627785,665
1,03085                      1,50304                     90,1824                     1628815,2668
1,03085                      1,54208                     92,5248                     1629813,6686
1,03085                      1,50792                     90,4752                     1630827,6703
1,03085                      1,57136                     94,2816                     1631872,8722
1,03085                      1,50792                     90,4752                     1632855,6739
1,03085                      1,57136                     94,2816                     1633869,6757
1,03085                      1,51768                     91,0608                     1634899,2775
1,03085                      1,49328                     89,5968                     1635897,6793
1,03085                      1,50792                     90,4752                     1636911,681
1,03085                      1,55184                     93,1104                     1637956,8829
1,03085                      1,48352                     89,0112                     1638939,6846
1,03085                      1,49816                     89,8896                     1639953,6864
1,03085                      1,5128                     90,768                     1640983,2882
1,03085                      1,50304                     90,1824                     1641981,6899
1,03085                      1,50792                     90,4752                     1642995,6917
1,03085                      1,52744                     91,6464                     1644025,2935
1,03085                      1,52256                     91,3536                     1645023,6953
1,03085                      1,49816                     89,8896                     1646037,6971
1,03085                      1,52256                     91,3536                     1647082,8989
1,03085                      1,49328                     89,5968                     1648065,7006
1,03085                      1,5128                     90,768                     1649079,7024
1,03085                      1,50304                     90,1824                     1650109,3042
1,03085                      1,50304                     90,1824                     1651107,706
1,03085                      1,50792                     90,4752                     1652121,7077
1,03085                      1,50304                     90,1824                     1653166,9096
1,03085                      1,50792                     90,4752                     1654149,7113
1,03085                      1,4884                     89,304                     1655163,7131
1,03085                      1,51768                     91,0608                     1656193,3149
1,03085                      1,5128                     90,768                     1657191,7167
1,03085                      1,50792                     90,4752                     1658205,7184
1,03085                      1,52256                     91,3536                     1659235,3202
1,03085                      1,49816                     89,8896                     1660233,722
1,03085                      1,50792                     90,4752                     1661247,7238
1,03085                      1,53232                     91,9392                     1662292,9256
1,03085                      1,47864                     88,7184                     1663275,7273
1,03085                      1,50304                     90,1824                     1664289,7291
1,03085                      1,50792                     90,4752                     1665319,3309
1,03085                      1,5372                     92,232                     1666317,7327
1,03085                      1,49328                     89,5968                     1667331,7345
1,03085                      1,50792                     90,4752                     1668376,9363
1,03085                      1,50792                     90,4752                     1669359,738
1,03085                      1,49328                     89,5968                     1670373,7398
1,03085                      1,5128                     90,768                     1671403,3416
1,03085                      1,50792                     90,4752                     1672401,7434
1,03085                      1,51768                     91,0608                     1673415,7452
1,03085                      1,49816                     89,8896                     1674445,347
1,03085                      1,51768                     91,0608                     1675443,7487
1,03085                      1,52256                     91,3536                     1676457,7505
1,03085                      1,51768                     91,0608                     1677502,9523
1,03085                      1,5128                     90,768                     1678485,7541
1,03085                      1,51768                     91,0608                     1679499,7558
1,03085                      1,50304                     90,1824                     1680529,3576
1,03085                      1,51768                     91,0608                     1681527,7594
1,03085                      1,50792                     90,4752                     1682541,7612
1,03085                      1,50304                     90,1824                     1683586,963
1,03085                      1,5128                     90,768                     1684569,7647
1,03085                      1,53232                     91,9392                     1685583,7665
1,03085                      1,49816                     89,8896                     1686613,3683
1,03085                      1,52744                     91,6464                     1687611,7701
1,03085                      1,52256                     91,3536                     1688625,7719
1,03085                      1,52744                     91,6464                     1689655,3737
1,03085                      1,50304                     90,1824                     1690653,7754
1,03085                      1,57624                     94,5744                     1691667,7772
1,03085                      1,4884                     89,304                     1692712,979
1,03085                      1,54208                     92,5248                     1693695,7808
1,03085                      1,49328                     89,5968                     1694709,7826
1,03085                      1,54696                     92,8176                     1695739,3844
1,03085                      1,53232                     91,9392                     1696737,7861
1,03085                      1,54696                     92,8176                     1697751,7879
1,03085                      1,51768                     91,0608                     1698796,9897
1,03085                      1,54208                     92,5248                     1699779,7915
1,03085                      1,50304                     90,1824                     1700793,7932
1,03085                      1,55184                     93,1104                     1701823,395
1,03085                      1,52256                     91,3536                     1702821,7968
1,03085                      1,53232                     91,9392                     1703835,7986
1,03085                      1,4884                     89,304                     1704865,4004
1,03085                      1,5616                     93,696                     1705863,8021
1,03085                      1,5128                     90,768                     1706877,8039
1,03085                      1,53232                     91,9392                     1707923,0058
1,03085                      1,50792                     90,4752                     1708905,8075
1,03085                      1,52744                     91,6464                     1709919,8093
1,03085                      1,50792                     90,4752                     1710949,4111
1,03085                      1,55184                     93,1104                     1711947,8128
1,03085                      1,49816                     89,8896                     1712961,8146
1,03085                      1,55184                     93,1104                     1714007,0164
1,03085                      1,5128                     90,768                     1714989,8182
1,03085                      1,5372                     92,232                     1716003,82
1,03085                      1,5128                     90,768                     1717033,4218
1,03085                      1,55184                     93,1104                     1718031,8235
1,03085                      1,52744                     91,6464                     1719045,8253
1,03085                      1,5616                     93,696                     1720293,8275
1,03085                      1,50304                     90,1824                     1721292,2292
1,03085                      1,53232                     91,9392                     1722306,231
1,03085                      1,49816                     89,8896                     1723335,8328
1,03085                      1,55672                     93,4032                     1724334,2346
1,03085                      1,52256                     91,3536                     1725348,2364
1,03085                      1,54208                     92,5248                     1726377,8382
1,03085                      1,52744                     91,6464                     1727376,2399
1,03085                      1,53232                     91,9392                     1728390,2417
1,03085                      1,55672                     93,4032                     1729919,0444
1,03085                      1,50304                     90,1824                     1730933,0462
1,03085                      1,54696                     92,8176                     1731947,048
1,03085                      1,52256                     91,3536                     1732976,6498
1,03085                      1,50792                     90,4752                     1733975,0515
1,03085                      1,52256                     91,3536                     1734989,0533
1,03085                      1,49816                     89,8896                     1736065,4552
1,03085                      1,5128                     90,768                     1737017,0569
1,03085                      1,49816                     89,8896                     1738031,0586
1,03085                      1,50304                     90,1824                     1739045,0604
1,03085                      1,51768                     91,0608                     1740059,0622
1,03085                      1,52256                     91,3536                     1741073,064
1,03085                      1,50792                     90,4752                     1742118,2658
1,03085                      1,51768                     91,0608                     1743101,0675
1,03085                      1,52256                     91,3536                     1744115,0693
1,03085                      1,49816                     89,8896                     1745144,6711
1,03085                      1,53232                     91,9392                     1746143,0729
1,03085                      1,49816                     89,8896                     1747453,4752
1,03085                      1,50304                     90,1824                     1748171,0765
1,03085                      1,52256                     91,3536                     1749185,0782
1,03085                      1,42496                     85,4976                     1750199,08
1,03085                      1,49328                     89,5968                     1751213,0818
1,03085                      1,50304                     90,1824                     1752227,0836
1,03085                      1,50304                     90,1824                     1753241,0854
1,03085                      1,50304                     90,1824                     1754255,0871
1,03085                      1,50304                     90,1824                     1755269,0889
1,03085                      1,48352                     89,0112                     1756314,2908
1,03085                      1,51768                     91,0608                     1757297,0925
1,03085                      1,49816                     89,8896                     1758311,0943
1,03085                      1,50304                     90,1824                     1759325,096
1,03085                      1,5128                     90,768                     1760339,0978
1,03085                      1,49816                     89,8896                     1761348,3001
1,03085                      1,49328                     89,5968                     1762362,3019
1,03085                      1,49328                     89,5968                     1763407,5037
1,03085                      1,51768                     91,0608                     1764438,1239
1,03085                      1,52744                     91,6464                     1765405,3256
1,03085                      1,50304                     90,1824                     1766419,3273
1,03085                      1,51768                     91,0608                     1767464,5292
1,03085                      1,51768                     91,0608                     1768447,3309
1,03085                      1,53232                     91,9392                     1769461,3327
1,03085                      1,51768                     91,0608                     1770506,5345
1,03085                      1,51768                     91,0608                     1771489,3363
1,03085                      1,50792                     90,4752                     1772503,338
1,03085                      1,53232                     91,9392                     1773532,9398
1,03085                      1,50304                     90,1824                     1774531,3416
1,03085                      1,5128                     90,768                     1775545,3434
1,03085                      1,49816                     89,8896                     1776590,5452
1,03085                      1,53232                     91,9392                     1777573,3469
1,03085                      1,51768                     91,0608                     1778587,3487
1,03085                      1,50792                     90,4752                     1779601,3505
1,03085                      1,49328                     89,5968                     1780615,3523
1,03085                      1,55184                     93,1104                     1782144,155
1,03085                      1,50304                     90,1824                     1782643,3558
1,03085                      1,53232                     91,9392                     1783657,3576
1,03085                      1,50792                     90,4752                     1784671,3594
1,03085                      1,54208                     92,5248                     1785716,5612
1,03085                      1,5128                     90,768                     1786714,963
1,03085                      1,5128                     90,768                     1787713,3647
1,03085                      1,49328                     89,5968                     1788742,9666
1,03085                      1,50304                     90,1824                     1789741,3683
1,03085                      1,49816                     89,8896                     1790755,3701
1,03085                      1,50304                     90,1824                     1791800,5719
1,03085                      1,4884                     89,304                     1792783,3737
1,03085                      1,50304                     90,1824                     1793797,3754
1,03085                      1,49328                     89,5968                     1794826,9772
1,03085                      1,4884                     89,304                     1795825,379
1,03085                      1,49816                     89,8896                     1796839,3808
1,03085                      1,4884                     89,304                     1797884,5826
1,03085                      1,5372                     92,232                     1798867,3843
1,03085                      1,51768                     91,0608                     1799881,3861
1,03085                      1,47864                     88,7184                     1800926,588
1,03085                      1,48352                     89,0112                     1801909,3897
1,03085                      1,52744                     91,6464                     1802923,3915
1,03085                      1,50792                     90,4752                     1803937,3932
1,03085                      1,47864                     88,7184                     1804951,395
1,03085                      1,50304                     90,1824                     1805965,3968
1,03085                      1,5128                     90,768                     1807010,5986
1,03085                      1,50304                     90,1824                     1807993,4004
1,03085                      1,50304                     90,1824                     1809007,4022
1,03085                      1,50304                     90,1824                     1810021,4039
1,03085                      1,54696                     92,8176                     1811035,4057
1,03085                      1,4884                     89,304                     1812049,4075
1,03085                      1,51768                     91,0608                     1813094,6093
1,03085                      1,55184                     93,1104                     1814155,4112
1,03085                      1,5128                     90,768                     1815091,4128
1,03085                      1,49328                     89,5968                     1816136,6147
1,03085                      1,5372                     92,232                     1817119,4164
1,03085                      1,50304                     90,1824                     1818133,4182
1,03085                      1,51768                     91,0608                     1819163,02
1,03085                      1,51768                     91,0608                     1820161,4217
1,03085                      1,49816                     89,8896                     1821175,4235
1,03085                      1,49816                     89,8896                     1822220,6254
1,03085                      1,54696                     92,8176                     1823203,4271
1,03085                      1,52256                     91,3536                     1824217,4289
1,03085                      1,49328                     89,5968                     1825231,4306
1,03085                      1,50304                     90,1824                     1826245,4324
1,03085                      1,53232                     91,9392                     1827259,4342
1,03085                      1,51768                     91,0608                     1828304,636
1,03085                      1,52256                     91,3536                     1829287,4378
1,03085                      1,50304                     90,1824                     1830301,4396
1,03085                      1,40544                     84,3264                     1831315,4413
1,03085                      1,4884                     89,304                     1832329,4431
1,03085                      1,51768                     91,0608                     1833343,4449
1,03085                      1,49816                     89,8896                     1834373,0467
1,03085                      1,51768                     91,0608                     1835371,4485
1,03085                      1,49816                     89,8896                     1836385,4502
1,03085                      1,49816                     89,8896                     1837430,6521
1,03085                      1,5128                     90,768                     1838413,4538
1,03085                      1,52744                     91,6464                     1839427,4556
1,03085                      1,51768                     91,0608                     1840457,0574
1,03085                      1,5616                     93,696                     1841907,8599
1,03085                      1,49816                     89,8896                     1842469,4609
1,03085                      1,55184                     93,1104                     1843483,4627
1,03085                      1,42496                     85,4976                     1844497,4645
1,03085                      1,55184                     93,1104                     1845511,4663
1,03085                      1,50792                     90,4752                     1846525,468
1,03085                      1,54208                     92,5248                     1847539,4698
1,03085                      1,50792                     90,4752                     1848584,6717
1,03085                      1,55184                     93,1104                     1849676,6736
1,03085                      1,50304                     90,1824                     1850597,0752
1,03085                      1,53232                     91,9392                     1851595,477
1,03085                      1,50792                     90,4752                     1852609,4787
1,03085                      1,54208                     92,5248                     1853623,4805
1,03085                      1,52256                     91,3536                     1854637,4823
1,03085                      1,54208                     92,5248                     1855651,4841
1,03085                      1,50304                     90,1824                     1856665,4859
1,03085                      1,52744                     91,6464                     1857679,4876
1,03085                      1,49328                     89,5968                     1858693,4894
1,03085                      1,55184                     93,1104                     1859707,4912
1,03085                      1,54696                     92,8176                     1860721,493
1,03085                      1,55184                     93,1104                     1861735,4948
1,03085                      1,49816                     89,8896                     1862780,6966
1,03085                      1,54208                     92,5248                     1863763,4983
1,03085                      1,50792                     90,4752                     1864933,5004
1,03085                      1,54208                     92,5248                     1865791,5019
1,03085                      1,49816                     89,8896                     1866805,5037
1,03085                      1,55184                     93,1104                     1867850,7055
1,03085                      1,49816                     89,8896                     1868833,5072
1,03085                      1,5372                     92,232                     1869847,509
1,03085                      1,49816                     89,8896                     1870861,5108
1,03085                      1,51768                     91,0608                     1871875,5126
1,03085                      1,50792                     90,4752                     1872920,7144
1,03085                      1,49816                     89,8896                     1873903,5161
1,03085                      1,52256                     91,3536                     1874917,5179
1,03085                      1,51768                     91,0608                     1875947,1197
1,03085                      1,53232                     91,9392                     1877117,1218
1,03085                      1,49816                     89,8896                     1877959,5233
1,03085                      1,52256                     91,3536                     1878973,525
1,03085                      1,52256                     91,3536                     1880003,1268
1,03085                      1,49816                     89,8896                     1881001,5286
1,03085                      1,52744                     91,6464                     1882015,5304
1,03085                      1,51768                     91,0608                     1883060,7322
1,03085                      1,49816                     89,8896                     1884043,5339
1,03085                      1,50792                     90,4752                     1885057,5357
1,03085                      1,53232                     91,9392                     1886071,5375
1,03085                      1,5372                     92,232                     1887085,5393
1,03085                      1,4884                     89,304                     1888099,5411
1,03085                      1,53232                     91,9392                     1889316,3432
1,03085                      1,52256                     91,3536                     1890127,5446
1,03085                      1,4884                     89,304                     1891141,5464
1,03085                      1,51768                     91,0608                     1892155,5482
1,03085                      1,52256                     91,3536                     1893169,55
1,03085                      1,50792                     90,4752                     1894183,5518
1,03085                      1,50792                     90,4752                     1895197,5535
1,03085                      1,50304                     90,1824                     1896211,5553
1,03085                      1,52256                     91,3536                     1897256,7572
1,03085                      1,51768                     91,0608                     1898239,5589
1,03085                      1,49816                     89,8896                     1899253,5607
1,03085                      1,52744                     91,6464                     1900283,1625
1,03085                      1,50304                     90,1824                     1901281,5642
1,03085                      1,55672                     93,4032                     1902295,566
1,03085                      1,49816                     89,8896                     1903340,7678
1,03085                      1,50792                     90,4752                     1904323,5696
1,03085                      1,52256                     91,3536                     1905337,5713
1,03085                      1,51768                     91,0608                     1906351,5731
1,03085                      1,50792                     90,4752                     1907365,5749
1,03085                      1,5128                     90,768                     1908379,5767
1,03085                      1,52744                     91,6464                     1909424,7785
1,03085                      1,52256                     91,3536                     1910407,5803
1,03085                      1,52256                     91,3536                     1911421,582
1,03085                      1,52256                     91,3536                     1912435,5838
1,03085                      1,53232                     91,9392                     1913449,5856
1,03085                      1,5128                     90,768                     1914463,5874
1,03085                      1,52744                     91,6464                     1915493,1892
1,03085                      1,52256                     91,3536                     1916491,5909
1,03085                      1,54208                     92,5248                     1917505,5927
1,03085                      1,50792                     90,4752                     1918519,5945
1,03085                      1,53232                     91,9392                     1919533,5963
1,03085                      1,50792                     90,4752                     1920547,5981
1,03085                      1,49816                     89,8896                     1921577,1999
1,03085                      1,50304                     90,1824                     1922575,6016
1,03085                      1,58112                     94,8672                     1923589,6034
1,03085                      1,52744                     91,6464                     1924603,6052
1,03085                      1,54208                     92,5248                     1925617,607
1,03085                      1,49816                     89,8896                     1926631,6087
1,03085                      1,52256                     91,3536                     1927676,8106
1,03085                      1,50792                     90,4752                     1928659,6123
1,03085                      1,5372                     92,232                     1929673,6141
1,03085                      1,50792                     90,4752                     1930703,2159
1,03085                      1,54208                     92,5248                     1931701,6177
1,03085                      1,50792                     90,4752                     1932715,6194
1,03085                      1,55184                     93,1104                     1933760,8213
1,03085                      1,5128                     90,768                     1934743,623
1,03085                      1,55184                     93,1104                     1935757,6248
1,03085                      1,5128                     90,768                     1936787,2266
1,03085                      1,50792                     90,4752                     1937785,6283
1,03085                      1,5128                     90,768                     1938799,6301
1,03085                      1,52256                     91,3536                     1939813,6319
1,03085                      1,49816                     89,8896                     1940827,6337
1,03085                      1,53232                     91,9392                     1941841,6355
1,03085                      1,5128                     90,768                     1942886,8373
1,03085                      1,5128                     90,768                     1943869,639
1,03085                      1,50792                     90,4752                     1944883,6408
1,03085                      1,52744                     91,6464                     1945913,2426
1,03085                      1,49816                     89,8896                     1946911,6444
1,03085                      1,50304                     90,1824                     1947925,6461
1,03085                      1,52744                     91,6464                     1948970,848
1,03085                      1,50792                     90,4752                     1949953,6497
1,03085                      1,5128                     90,768                     1950967,6515
1,03085                      1,54208                     92,5248                     1951997,2533
1,03085                      1,51768                     91,0608                     1952995,6551
1,03085                      1,50304                     90,1824                     1954009,6568
1,03085                      1,49816                     89,8896                     1955023,6586
1,03085                      1,50304                     90,1824                     1956037,6604
1,03085                      1,51768                     91,0608                     1957051,6622
1,03085                      1,52744                     91,6464                     1958096,864
1,03085                      1,48352                     89,0112                     1959079,6657
1,03085                      1,55184                     93,1104                     1960093,6675
1,03085                      1,52744                     91,6464                     1961123,2693
1,03085                      1,5616                     93,696                     1962121,6711
1,03085                      1,50304                     90,1824                     1963135,6729
1,03085                      1,52744                     91,6464                     1964180,8747
1,03085                      1,5128                     90,768                     1965163,6764
1,03085                      1,5616                     93,696                     1966177,6782
1,03085                      1,54208                     92,5248                     1967191,68
1,03085                      1,5616                     93,696                     1968205,6818
1,03085                      1,50792                     90,4752                     1969219,6835
1,03085                      1,53232                     91,9392                     1970264,8854
1,03085                      1,50792                     90,4752                     1971247,6871
1,03085                      1,56648                     93,9888                     1972261,6889
1,03085                      1,52256                     91,3536                     1973306,8907
1,03085                      1,5372                     92,232                     1974289,6925
1,03085                      1,50792                     90,4752                     1975303,6942
1,03085                      1,55184                     93,1104                     1976333,296
1,03085                      1,5128                     90,768                     1977331,6978
1,03085                      1,54696                     92,8176                     1978345,6996
1,03085                      1,50304                     90,1824                     1979390,9014
1,03085                      1,5616                     93,696                     1980373,7031
1,03085                      1,51768                     91,0608                     1981387,7049
1,03085                      1,54208                     92,5248                     1982417,3067
1,03085                      1,50304                     90,1824                     1983415,7085
1,03085                      1,54696                     92,8176                     1984429,7103
1,03085                      1,5128                     90,768                     1985474,9121
1,03085                      1,54208                     92,5248                     1986457,7138
1,03085                      1,51768                     91,0608                     1987471,7156
1,03085                      1,56648                     93,9888                     1988516,9174
1,03085                      1,51768                     91,0608                     1989499,7192
1,03085                      1,51768                     91,0608                     1990513,7209
1,03085                      1,53232                     91,9392                     1991543,3228
1,03085                      1,53232                     91,9392                     1992541,7245
1,03085                      1,50792                     90,4752                     1993555,7263
1,03085                      1,55672                     93,4032                     1994600,9281
1,03085                      1,53232                     91,9392                     1995583,7299
1,03085                      1,53232                     91,9392                     1996597,7316
1,03085                      1,5128                     90,768                     1997627,3334
1,03085                      1,5372                     92,232                     1998625,7352
1,03085                      1,49816                     89,8896                     1999639,737
1,03085                      1,50304                     90,1824                     2000684,9388
1,03085                      1,50792                     90,4752                     2001667,7405
1,03085                      1,50792                     90,4752                     2002681,7423
1,03085                      1,52744                     91,6464                     2003726,9442
1,03085                      1,53232                     91,9392                     2004709,7459
1,03085                      1,50792                     90,4752                     2005723,7477
1,03085                      1,51768                     91,0608                     2006753,3495
1,03085                      1,52256                     91,3536                     2007751,7512
1,03085                      1,5128                     90,768                     2008765,753
1,03085                      1,51768                     91,0608                     2009810,9548
1,03085                      1,5128                     90,768                     2010793,7566
1,03085                      1,54696                     92,8176                     2011807,7584
1,03085                      1,5372                     92,232                     2012837,3602
1,03085                      1,50792                     90,4752                     2013835,7619
1,03085                      1,5372                     92,232                     2014849,7637
1,03085                      1,50792                     90,4752                     2015894,9655
1,03085                      1,52256                     91,3536                     2016877,7673
1,03085                      1,52256                     91,3536                     2017891,769
1,03085                      1,53232                     91,9392                     2018936,9709
1,03085                      1,5128                     90,768                     2019919,7726
1,03085                      1,51768                     91,0608                     2020933,7744
1,03085                      1,50792                     90,4752                     2021963,3762
1,03085                      1,51768                     91,0608                     2022961,7779
1,03085                      1,51768                     91,0608                     2023975,7797
1,03085                      1,59088                     95,4528                     2025020,9816
1,03085                      1,5372                     92,232                     2026003,7833
1,03085                      1,54208                     92,5248                     2027017,7851
1,03085                      1,50792                     90,4752                     2028047,3869
1,03085                      1,59088                     95,4528                     2029045,7886
1,03085                      1,52256                     91,3536                     2030059,7904
1,03085                      1,50792                     90,4752                     2031104,9922
1,03085                      1,51768                     91,0608                     2032087,794
1,03085                      1,52744                     91,6464                     2033101,7958
1,03085                      1,54696                     92,8176                     2034146,9976
1,03085                      1,52744                     91,6464                     2035129,7993
1,03085                      1,56648                     93,9888                     2036143,8011
1,03085                      1,54696                     92,8176                     2037173,4029
1,03085                      1,50792                     90,4752                     2038171,8047
1,03085                      1,55184                     93,1104                     2039747,4074
1,03085                      1,55184                     93,1104                     2040324,6084
1,03085                      1,5372                     92,232                     2041213,81
1,03085                      1,55184                     93,1104                     2042227,8118
1,03085                      1,52744                     91,6464                     2043241,8136
1,03085                      1,54696                     92,8176                     2044255,8153
1,03085                      1,52744                     91,6464                     2045269,8171
