Datos de la Planta a lazo abierto (Gla) o lazo cerrado (Glc)
C:\Users\Paulo\Documents\PAULO\CONTROL\ETN1040\3Dprinter\3DPrinterProject\analisis\datosRecolectados\Gp_tm1000ms_19V_0a1V_3kHz_a.txt
24/09/2014 06:41:41 a.m.

r(t):Voltaje[V]          y(t):Voltaje[V]         y(t):Temp[Â°C]         Tiempo de muestreo:tm[ms]
1.000                      0.459                     27.523                     1825.203
1.000                      0.454                     27.230                     2839.205
1.000                      0.449                     26.938                     3868.807
1.000                      0.454                     27.230                     4867.209
1.000                      0.425                     25.474                     5881.210
1.000                      0.468                     28.109                     6910.812
1.000                      0.425                     25.474                     7909.214
1.000                      0.454                     27.230                     8923.216
1.000                      0.420                     25.181                     9952.818
1.000                      0.449                     26.938                     10951.219
1.000                      0.449                     26.938                     11965.221
1.000                      0.410                     24.595                     12994.823
1.000                      0.454                     27.230                     14008.825
1.000                      0.459                     27.523                     15007.226
1.000                      0.454                     27.230                     16021.228
1.000                      0.454                     27.230                     17050.83
1.000                      0.464                     27.816                     18049.232
1.000                      0.464                     27.816                     19063.234
1.000                      0.449                     26.938                     20092.835
1.000                      0.464                     27.816                     21091.237
1.000                      0.425                     25.474                     22105.239
1.000                      0.459                     27.523                     23134.841
1.000                      0.459                     27.523                     24145.243
1.000                      0.468                     28.109                     25142.045
1.000                      0.434                     26.059                     26172.447
1.000                      0.449                     26.938                     27170.849
1.000                      0.449                     26.938                     28184.851
1.000                      0.464                     27.816                     29214.452
1.000                      0.464                     27.816                     30197.254
1.000                      0.468                     28.109                     31226.856
1.000                      0.464                     27.816                     32240.858
1.000                      0.468                     28.109                     33270.460
1.000                      0.468                     28.109                     34268.861
1.000                      0.434                     26.059                     35282.863
1.000                      0.454                     27.230                     36312.465
1.000                      0.464                     27.816                     37404.467
1.000                      0.464                     27.816                     38324.868
1.000                      0.468                     28.109                     39354.470
1.000                      0.478                     28.694                     40337.272
1.000                      0.464                     27.816                     41366.874
1.000                      0.464                     27.816                     42380.876
1.000                      0.478                     28.694                     43410.477
1.000                      0.473                     28.402                     44408.879
1.000                      0.439                     26.352                     45422.881
1.000                      0.468                     28.109                     46452.483
1.000                      0.459                     27.523                     47450.884
1.000                      0.425                     25.474                     48464.886
1.000                      0.473                     28.402                     49494.488
1.000                      0.473                     28.402                     50492.890
1.000                      0.464                     27.816                     51506.892
1.000                      0.449                     26.938                     52536.493
1.000                      0.444                     26.645                     53550.495
1.000                      0.478                     28.694                     54548.897
1.000                      0.468                     28.109                     55562.899
1.000                      0.454                     27.230                     56592.501
1.000                      0.478                     28.694                     57590.902
1.000                      0.478                     28.694                     58604.904
1.000                      0.449                     26.938                     59634.506
1.000                      0.454                     27.230                     60632.908
1.000                      0.483                     28.987                     61646.909
1.000                      0.493                     29.573                     62676.511
1.000                      0.454                     27.230                     63659.313
1.000                      0.454                     27.230                     64688.915
1.000                      0.493                     29.573                     65702.917
1.000                      0.488                     29.28                     66732.518
1.000                      0.493                     29.573                     67730.920
1.000                      0.444                     26.645                     68744.922
1.000                      0.444                     26.645                     69774.524
1.000                      0.498                     29.866                     70772.926
1.000                      0.498                     29.866                     71786.927
1.000                      0.483                     28.987                     72816.529
1.000                      0.498                     29.866                     73814.931
1.000                      0.493                     29.573                     74828.933
1.000                      0.488                     29.28                     75842.934
1.000                      0.454                     27.230                     76872.536
1.000                      0.508                     30.451                     77870.938
1.000                      0.449                     26.938                     78884.940
1.000                      0.493                     29.573                     79914.542
1.000                      0.503                     30.158                     80912.943
1.000                      0.464                     27.816                     81926.945
1.000                      0.503                     30.158                     82956.547
1.000                      0.503                     30.158                     83954.949
1.000                      0.493                     29.573                     84968.950
1.000                      0.503                     30.158                     85998.552
1.000                      0.468                     28.109                     86981.354
1.000                      0.498                     29.866                     88010.956
1.000                      0.503                     30.158                     89024.958
1.000                      0.512                     30.744                     90054.559
1.000                      0.478                     28.694                     91052.961
1.000                      0.508                     30.451                     92066.963
1.000                      0.503                     30.158                     93096.565
1.000                      0.454                     27.230                     94094.966
1.000                      0.503                     30.158                     95108.968
1.000                      0.503                     30.158                     96138.57
1.000                      0.508                     30.451                     97121.372
1.000                      0.503                     30.158                     98150.974
1.000                      0.508                     30.451                     99164.975
1.000                      0.512                     30.744                     100194.577
1.000                      0.473                     28.402                     101192.979
1.000                      0.508                     30.451                     102206.981
1.000                      0.512                     30.744                     103236.582
1.000                      0.459                     27.523                     104234.984
1.000                      0.454                     27.230                     105248.986
1.000                      0.464                     27.816                     106278.588
1.000                      0.512                     30.744                     107276.990
1.000                      0.517                     31.037                     108290.991
1.000                      0.468                     28.109                     109320.593
1.000                      0.517                     31.037                     110334.595
1.000                      0.478                     28.694                     111332.997
1.000                      0.517                     31.037                     112346.998
1.000                      0.503                     30.158                     113376.600
1.000                      0.503                     30.158                     114375.002
1.000                      0.464                     27.816                     115389.004
1.000                      0.517                     31.037                     116418.606
1.000                      0.522                     31.330                     117417.007
1.000                      0.508                     30.451                     118431.009
1.000                      0.522                     31.330                     119460.611
1.000                      0.517                     31.037                     120443.413
1.000                      0.493                     29.573                     121473.014
1.000                      0.527                     31.622                     122487.016
1.000                      0.527                     31.622                     123516.618
1.000                      0.508                     30.451                     124515.020
1.000                      0.478                     28.694                     125529.022
1.000                      0.542                     32.501                     126558.623
1.000                      0.517                     31.037                     127557.025
1.000                      0.527                     31.622                     128571.027
1.000                      0.527                     31.622                     129600.629
1.000                      0.493                     29.573                     130583.430
1.000                      0.532                     31.915                     131613.032
1.000                      0.517                     31.037                     132627.034
1.000                      0.532                     31.915                     133656.636
1.000                      0.493                     29.573                     134655.038
1.000                      0.512                     30.744                     135669.039
1.000                      0.517                     31.037                     136698.641
1.000                      0.527                     31.622                     137697.043
1.000                      0.493                     29.573                     138711.045
1.000                      0.522                     31.330                     139740.647
1.000                      0.532                     31.915                     140739.048
1.000                      0.527                     31.622                     141753.050
1.000                      0.522                     31.330                     142782.652
1.000                      0.493                     29.573                     143796.654
1.000                      0.527                     31.622                     144795.056
1.000                      0.532                     31.915                     145809.057
1.000                      0.537                     32.208                     146838.659
1.000                      0.527                     31.622                     147837.061
1.000                      0.542                     32.501                     148851.063
1.000                      0.537                     32.208                     149880.664
1.000                      0.537                     32.208                     150879.066
1.000                      0.537                     32.208                     151893.068
1.000                      0.527                     31.622                     152922.670
1.000                      0.542                     32.501                     153936.672
1.000                      0.532                     31.915                     154935.073
1.000                      0.508                     30.451                     155949.075
1.000                      0.512                     30.744                     156978.677
1.000                      0.542                     32.501                     157977.079
1.000                      0.537                     32.208                     158991.080
1.000                      0.542                     32.501                     160020.682
1.000                      0.532                     31.915                     161019.084
1.000                      0.542                     32.501                     162033.086
1.000                      0.547                     32.794                     163062.688
1.000                      0.537                     32.208                     164076.689
1.000                      0.508                     30.451                     165075.091
1.000                      0.537                     32.208                     166089.093
1.000                      0.551                     33.086                     167118.695
1.000                      0.537                     32.208                     168117.096
1.000                      0.537                     32.208                     169131.098
1.000                      0.532                     31.915                     170160.7
1.000                      0.508                     30.451                     171159.102
1.000                      0.542                     32.501                     172173.104
1.000                      0.522                     31.330                     173202.705
1.000                      0.566                     33.965                     174201.107
1.000                      0.551                     33.086                     175215.109
1.000                      0.556                     33.379                     176244.711
1.000                      0.547                     32.794                     177227.512
1.000                      0.571                     34.258                     178257.114
1.000                      0.547                     32.794                     179271.116
1.000                      0.556                     33.379                     180300.718
1.000                      0.537                     32.208                     181299.120
1.000                      0.571                     34.258                     182313.121
1.000                      0.542                     32.501                     183342.723
1.000                      0.522                     31.330                     184341.125
1.000                      0.556                     33.379                     185355.127
1.000                      0.556                     33.379                     186384.728
1.000                      0.522                     31.330                     187367.530
1.000                      0.561                     33.672                     188397.132
1.000                      0.561                     33.672                     189411.134
1.000                      0.551                     33.086                     190440.736
1.000                      0.556                     33.379                     191439.137
1.000                      0.566                     33.965                     192453.139
1.000                      0.571                     34.258                     193482.741
1.000                      0.571                     34.258                     194481.143
1.000                      0.566                     33.965                     195495.144
1.000                      0.556                     33.379                     196524.746
1.000                      0.537                     32.208                     197523.148
1.000                      0.532                     31.915                     198537.150
1.000                      0.561                     33.672                     199566.752
1.000                      0.566                     33.965                     200580.754
1.000                      0.551                     33.086                     201579.155
1.000                      0.512                     30.744                     202593.157
1.000                      0.556                     33.379                     203622.759
1.000                      0.571                     34.258                     204621.160
1.000                      0.576                     34.550                     205635.162
1.000                      0.561                     33.672                     206664.764
1.000                      0.537                     32.208                     207663.166
1.000                      0.542                     32.501                     208677.168
1.000                      0.571                     34.258                     209706.770
1.000                      0.498                     29.866                     210689.571
1.000                      0.561                     33.672                     211719.173
1.000                      0.581                     34.843                     212733.175
1.000                      0.556                     33.379                     213762.777
1.000                      0.571                     34.258                     214761.178
1.000                      0.581                     34.843                     215775.180
1.000                      0.537                     32.208                     216804.782
1.000                      0.537                     32.208                     217803.184
1.000                      0.581                     34.843                     218817.186
1.000                      0.586                     35.136                     219846.787
1.000                      0.551                     33.086                     220829.589
1.000                      0.576                     34.550                     221859.191
1.000                      0.537                     32.208                     222873.193
1.000                      0.581                     34.843                     223902.794
1.000                      0.576                     34.550                     224901.196
1.000                      0.551                     33.086                     225915.198
1.000                      0.576                     34.550                     226944.800
1.000                      0.551                     33.086                     227943.202
1.000                      0.586                     35.136                     228957.203
1.000                      0.537                     32.208                     229986.805
1.000                      0.586                     35.136                     230985.207
1.000                      0.605                     36.307                     231999.209
1.000                      0.576                     34.550                     233028.810
1.000                      0.581                     34.843                     234042.812
1.000                      0.590                     35.429                     235041.214
1.000                      0.600                     36.014                     236055.216
1.000                      0.605                     36.307                     237084.818
1.000                      0.581                     34.843                     238083.219
1.000                      0.586                     35.136                     239097.221
1.000                      0.595                     35.722                     240126.823
1.000                      0.600                     36.014                     241125.225
1.000                      0.556                     33.379                     242139.226
1.000                      0.586                     35.136                     243168.828
1.000                      0.600                     36.014                     244151.63
1.000                      0.561                     33.672                     245181.232
1.000                      0.561                     33.672                     246195.234
1.000                      0.590                     35.429                     247224.835
1.000                      0.581                     34.843                     248223.237
1.000                      0.551                     33.086                     249237.239
1.000                      0.595                     35.722                     250266.841
1.000                      0.590                     35.429                     251265.242
1.000                      0.600                     36.014                     252279.244
1.000                      0.605                     36.307                     253308.846
1.000                      0.600                     36.014                     254291.648
1.000                      0.605                     36.307                     255321.250
1.000                      0.605                     36.307                     256335.251
1.000                      0.61                     36.6                     257364.853
1.000                      0.595                     35.722                     258363.255
1.000                      0.595                     35.722                     259377.257
1.000                      0.547                     32.794                     260406.858
1.000                      0.600                     36.014                     261405.260
1.000                      0.605                     36.307                     262419.262
1.000                      0.605                     36.307                     263448.864
1.000                      0.590                     35.429                     264447.266
1.000                      0.615                     36.893                     265461.267
1.000                      0.571                     34.258                     266490.869
1.000                      0.571                     34.258                     267504.871
1.000                      0.581                     34.843                     268503.273
1.000                      0.400                     24.010                     269517.274
1.000                      0.605                     36.307                     270546.876
1.000                      0.595                     35.722                     271545.278
1.000                      0.576                     34.550                     272559.280
1.000                      0.600                     36.014                     273588.882
1.000                      0.615                     36.893                     274587.283
1.000                      0.590                     35.429                     275601.285
1.000                      0.576                     34.550                     276630.887
1.000                      0.576                     34.550                     277613.689
1.000                      0.595                     35.722                     278643.291
1.000                      0.600                     36.014                     279657.292
1.000                      0.61                     36.6                     280686.894
1.000                      0.595                     35.722                     281685.296
1.000                      0.615                     36.893                     282699.298
1.000                      0.630                     37.771                     283728.900
1.000                      0.581                     34.843                     284727.301
1.000                      0.615                     36.893                     285741.303
1.000                      0.620                     37.186                     286770.905
1.000                      0.615                     36.893                     287769.307
1.000                      0.590                     35.429                     288783.308
1.000                      0.620                     37.186                     289812.910
1.000                      0.620                     37.186                     290826.912
1.000                      0.630                     37.771                     291825.314
1.000                      0.620                     37.186                     292839.316
1.000                      0.615                     36.893                     293868.917
1.000                      0.61                     36.6                     294867.319
1.000                      0.620                     37.186                     295881.321
1.000                      0.561                     33.672                     296910.923
1.000                      0.590                     35.429                     297909.324
1.000                      0.590                     35.429                     298923.326
1.000                      0.586                     35.136                     299952.928
1.000                      0.590                     35.429                     300966.930
1.000                      0.605                     36.307                     301965.332
1.000                      0.634                     38.064                     302979.333
1.000                      0.620                     37.186                     304008.935
1.000                      0.615                     36.893                     305007.337
1.000                      0.615                     36.893                     306021.339
1.000                      0.620                     37.186                     307050.940
1.000                      0.625                     37.478                     308049.342
1.000                      0.634                     38.064                     309063.344
1.000                      0.600                     36.014                     310092.946
1.000                      0.634                     38.064                     311106.948
1.000                      0.605                     36.307                     312105.349
1.000                      0.639                     38.357                     313119.351
1.000                      0.625                     37.478                     314148.953
1.000                      0.639                     38.357                     315147.355
1.000                      0.625                     37.478                     316161.356
1.000                      0.630                     37.771                     317190.958
1.000                      0.644                     38.650                     318189.36
1.000                      0.630                     37.771                     319203.362
1.000                      0.634                     38.064                     320232.964
1.000                      0.639                     38.357                     321231.365
1.000                      0.649                     38.942                     322245.367
1.000                      0.644                     38.650                     323274.969
1.000                      0.644                     38.650                     324288.971
1.000                      0.605                     36.307                     325287.372
1.000                      0.581                     34.843                     326301.374
1.000                      0.639                     38.357                     327330.976
1.000                      0.639                     38.357                     328329.378
1.000                      0.654                     39.235                     329343.380
1.000                      0.639                     38.357                     330372.981
1.000                      0.630                     37.771                     331371.383
1.000                      0.649                     38.942                     332385.385
1.000                      0.634                     38.064                     333414.987
1.000                      0.649                     38.942                     334397.788
1.000                      0.649                     38.942                     335427.390
1.000                      0.644                     38.650                     336441.392
1.000                      0.625                     37.478                     337470.994
1.000                      0.61                     36.6                     338469.396
1.000                      0.615                     36.893                     339483.397
1.000                      0.649                     38.942                     340512.999
1.000                      0.654                     39.235                     341511.401
1.000                      0.654                     39.235                     342525.403
1.000                      0.625                     37.478                     343555.005
1.000                      0.649                     38.942                     344553.406
1.000                      0.639                     38.357                     345567.408
1.000                      0.654                     39.235                     346581.410
1.000                      0.639                     38.357                     347611.012
1.000                      0.673                     40.406                     348609.414
1.000                      0.659                     39.528                     349623.415
1.000                      0.644                     38.650                     350653.017
1.000                      0.649                     38.942                     351651.419
1.000                      0.659                     39.528                     352665.421
1.000                      0.630                     37.771                     353695.022
1.000                      0.659                     39.528                     354693.424
1.000                      0.659                     39.528                     355707.426
1.000                      0.659                     39.528                     356737.028
1.000                      0.649                     38.942                     357751.030
1.000                      0.664                     39.821                     358749.431
1.000                      0.625                     37.478                     359763.433
1.000                      0.630                     37.771                     360793.035
1.000                      0.644                     38.650                     361791.437
1.000                      0.649                     38.942                     362805.438
1.000                      0.634                     38.064                     363835.040
1.000                      0.654                     39.235                     364833.442
1.000                      0.659                     39.528                     365847.444
1.000                      0.654                     39.235                     366877.046
1.000                      0.644                     38.650                     367891.047
1.000                      0.664                     39.821                     368889.449
1.000                      0.625                     37.478                     369903.451
1.000                      0.654                     39.235                     370933.053
1.000                      0.649                     38.942                     371931.454
1.000                      0.649                     38.942                     372945.456
1.000                      0.669                     40.114                     373975.058
1.000                      0.630                     37.771                     374973.460
1.000                      0.673                     40.406                     375987.462
1.000                      0.654                     39.235                     377017.063
1.000                      0.654                     39.235                     378015.465
1.000                      0.649                     38.942                     379029.467
1.000                      0.630                     37.771                     380059.069
1.000                      0.669                     40.114                     381073.070
1.000                      0.659                     39.528                     382071.472
1.000                      0.659                     39.528                     383085.474
1.000                      0.659                     39.528                     384115.076
1.000                      0.654                     39.235                     385113.478
1.000                      0.678                     40.699                     386127.479
1.000                      0.673                     40.406                     387157.081
1.000                      0.669                     40.114                     388155.483
1.000                      0.678                     40.699                     389169.485
1.000                      0.634                     38.064                     390199.086
1.000                      0.654                     39.235                     391181.888
1.000                      0.669                     40.114                     392211.49
1.000                      0.644                     38.650                     393225.492
1.000                      0.615                     36.893                     394255.094
1.000                      0.673                     40.406                     395253.495
1.000                      0.659                     39.528                     396267.497
1.000                      0.625                     37.478                     397297.099
1.000                      0.673                     40.406                     398295.501
1.000                      0.659                     39.528                     399309.502
1.000                      0.664                     39.821                     400339.104
1.000                      0.673                     40.406                     401321.906
1.000                      0.654                     39.235                     402351.508
1.000                      0.669                     40.114                     403365.510
1.000                      0.683                     40.992                     404395.111
1.000                      0.669                     40.114                     405393.513
1.000                      0.683                     40.992                     406407.515
1.000                      0.669                     40.114                     407437.117
1.000                      0.673                     40.406                     408435.518
1.000                      0.683                     40.992                     409449.520
1.000                      0.669                     40.114                     410479.122
1.000                      0.664                     39.821                     411477.524
1.000                      0.688                     41.285                     412491.526
1.000                      0.673                     40.406                     413521.128
1.000                      0.678                     40.699                     414535.129
1.000                      0.678                     40.699                     415533.531
1.000                      0.669                     40.114                     416547.533
1.000                      0.688                     41.285                     417577.135
1.000                      0.683                     40.992                     418575.536
1.000                      0.649                     38.942                     419589.538
1.000                      0.688                     41.285                     420619.140
1.000                      0.688                     41.285                     421617.542
1.000                      0.630                     37.771                     422631.544
1.000                      0.634                     38.064                     423661.145
1.000                      0.683                     40.992                     424643.947
1.000                      0.673                     40.406                     425673.549
1.000                      0.664                     39.821                     426687.551
1.000                      0.688                     41.285                     427717.152
1.000                      0.678                     40.699                     428715.554
1.000                      0.688                     41.285                     429729.556
1.000                      0.703                     42.163                     430759.158
1.000                      0.630                     37.771                     431757.560
1.000                      0.678                     40.699                     432771.561
1.000                      0.683                     40.992                     433801.163
1.000                      0.688                     41.285                     434783.965
1.000                      0.683                     40.992                     435813.567
1.000                      0.693                     41.578                     436827.568
1.000                      0.654                     39.235                     437857.170
1.000                      0.625                     37.478                     438855.572
1.000                      0.693                     41.578                     439869.574
1.000                      0.683                     40.992                     440899.176
1.000                      0.693                     41.578                     441897.577
1.000                      0.693                     41.578                     442911.579
1.000                      0.693                     41.578                     443941.181
1.000                      0.688                     41.285                     444939.583
1.000                      0.683                     40.992                     445953.584
1.000                      0.688                     41.285                     446983.186
1.000                      0.698                     41.870                     447997.188
1.000                      0.688                     41.285                     448995.590
1.000                      0.703                     42.163                     450009.592
1.000                      0.688                     41.285                     451039.193
1.000                      0.693                     41.578                     452037.595
1.000                      0.664                     39.821                     453051.597
1.000                      0.693                     41.578                     454081.199
1.000                      0.693                     41.578                     455079.600
1.000                      0.698                     41.870                     456093.602
1.000                      0.693                     41.578                     457123.204
1.000                      0.688                     41.285                     458106.006
1.000                      0.693                     41.578                     459135.608
1.000                      0.703                     42.163                     460149.609
1.000                      0.654                     39.235                     461179.211
1.000                      0.703                     42.163                     462177.613
1.000                      0.673                     40.406                     463191.615
1.000                      0.698                     41.870                     464221.216
1.000                      0.693                     41.578                     465219.618
1.000                      0.698                     41.870                     466233.62
1.000                      0.688                     41.285                     467263.222
1.000                      0.703                     42.163                     468261.624
1.000                      0.703                     42.163                     469275.625
1.000                      0.693                     41.578                     470305.227
1.000                      0.698                     41.870                     471319.229
1.000                      0.693                     41.578                     472317.631
1.000                      0.703                     42.163                     473331.632
1.000                      0.712                     42.749                     474361.234
1.000                      0.698                     41.870                     475359.636
1.000                      0.712                     42.749                     476373.638
1.000                      0.712                     42.749                     477403.240
1.000                      0.678                     40.699                     478401.641
1.000                      0.712                     42.749                     479415.643
1.000                      0.673                     40.406                     480445.245
1.000                      0.703                     42.163                     481428.047
1.000                      0.712                     42.749                     482457.648
1.000                      0.703                     42.163                     483471.650
1.000                      0.722                     43.334                     484501.252
1.000                      0.708                     42.456                     485499.654
1.000                      0.708                     42.456                     486513.656
1.000                      0.712                     42.749                     487543.258
1.000                      0.722                     43.334                     488541.659
1.000                      0.708                     42.456                     489555.661
1.000                      0.678                     40.699                     490585.263
1.000                      0.717                     43.042                     491568.064
1.000                      0.683                     40.992                     492597.666
1.000                      0.717                     43.042                     493611.668
1.000                      0.683                     40.992                     494641.270
1.000                      0.712                     42.749                     495639.672
1.000                      0.717                     43.042                     496653.674
1.000                      0.717                     43.042                     497683.275
1.000                      0.708                     42.456                     498681.677
1.000                      0.664                     39.821                     499695.679
1.000                      0.678                     40.699                     500725.281
1.000                      0.727                     43.627                     501723.682
1.000                      0.712                     42.749                     502737.684
1.000                      0.732                     43.92                     503767.286
1.000                      0.737                     44.213                     504781.288
1.000                      0.717                     43.042                     505779.690
1.000                      0.717                     43.042                     506793.691
1.000                      0.717                     43.042                     507823.293
1.000                      0.732                     43.92                     508821.695
1.000                      0.683                     40.992                     509835.697
1.000                      0.717                     43.042                     510865.298
1.000                      0.722                     43.334                     511863.700
1.000                      0.727                     43.627                     512877.702
1.000                      0.712                     42.749                     513907.304
1.000                      0.722                     43.334                     514890.106
1.000                      0.747                     44.798                     515919.707
1.000                      0.708                     42.456                     516933.709
1.000                      0.722                     43.334                     517963.311
1.000                      0.732                     43.92                     518961.713
1.000                      0.717                     43.042                     519975.714
1.000                      0.727                     43.627                     521005.316
1.000                      0.717                     43.042                     522003.718
1.000                      0.712                     42.749                     523017.720
1.000                      0.708                     42.456                     524047.322
1.000                      0.722                     43.334                     525045.723
1.000                      0.673                     40.406                     526059.725
1.000                      0.717                     43.042                     527073.727
1.000                      0.712                     42.749                     528103.329
1.000                      0.737                     44.213                     529101.730
1.000                      0.727                     43.627                     530115.732
1.000                      0.722                     43.334                     531145.334
1.000                      0.693                     41.578                     532143.736
1.000                      0.717                     43.042                     533157.738
1.000                      0.693                     41.578                     534187.339
1.000                      0.678                     40.699                     535185.741
1.000                      0.712                     42.749                     536199.743
1.000                      0.732                     43.92                     537229.345
1.000                      0.717                     43.042                     538212.146
1.000                      0.722                     43.334                     539241.748
1.000                      0.732                     43.92                     540255.750
1.000                      0.737                     44.213                     541285.352
1.000                      0.703                     42.163                     542283.754
1.000                      0.732                     43.92                     543297.755
1.000                      0.727                     43.627                     544327.357
1.000                      0.737                     44.213                     545325.759
1.000                      0.722                     43.334                     546339.761
1.000                      0.742                     44.506                     547369.363
1.000                      0.698                     41.870                     548352.164
1.000                      0.703                     42.163                     549381.766
1.000                      0.732                     43.92                     550395.768
1.000                      0.712                     42.749                     551425.370
1.000                      0.712                     42.749                     552423.771
1.000                      0.742                     44.506                     553437.773
1.000                      0.737                     44.213                     554467.375
1.000                      0.727                     43.627                     555465.777
1.000                      0.722                     43.334                     556479.779
1.000                      0.737                     44.213                     557509.380
1.000                      0.732                     43.92                     558507.782
1.000                      0.737                     44.213                     559521.784
1.000                      0.747                     44.798                     560551.386
1.000                      0.732                     43.92                     561565.388
1.000                      0.742                     44.506                     562563.789
1.000                      0.732                     43.92                     563577.791
1.000                      0.737                     44.213                     564607.393
1.000                      0.737                     44.213                     565605.795
1.000                      0.737                     44.213                     566619.796
1.000                      0.747                     44.798                     567649.398
1.000                      0.712                     42.749                     568647.800
1.000                      0.742                     44.506                     569661.802
1.000                      0.747                     44.798                     570691.404
1.000                      0.747                     44.798                     571705.405
1.000                      0.664                     39.821                     572703.807
1.000                      0.727                     43.627                     573717.809
1.000                      0.722                     43.334                     574747.411
1.000                      0.820                     49.190                     575745.812
1.000                      0.737                     44.213                     576759.814
1.000                      0.737                     44.213                     577789.416
1.000                      0.732                     43.92                     578787.818
1.000                      0.742                     44.506                     579801.820
1.000                      0.742                     44.506                     580831.421
1.000                      0.742                     44.506                     581814.223
1.000                      0.747                     44.798                     582843.825
1.000                      0.737                     44.213                     583857.827
1.000                      0.703                     42.163                     584887.428
1.000                      0.747                     44.798                     585885.830
1.000                      0.752                     45.091                     586899.832
1.000                      0.742                     44.506                     587929.434
1.000                      0.732                     43.92                     588927.836
1.000                      0.737                     44.213                     589941.837
1.000                      0.747                     44.798                     590971.439
1.000                      0.732                     43.92                     591969.841
1.000                      0.747                     44.798                     592983.843
1.000                      0.732                     43.92                     594013.444
1.000                      0.752                     45.091                     595027.446
1.000                      0.742                     44.506                     596025.848
1.000                      0.742                     44.506                     597039.850
1.000                      0.737                     44.213                     598069.452
1.000                      0.756                     45.384                     599067.853
1.000                      0.756                     45.384                     600081.855
1.000                      0.756                     45.384                     601111.457
1.000                      0.722                     43.334                     602109.859
1.000                      0.752                     45.091                     603123.860
1.000                      0.791                     47.434                     604153.462
1.000                      0.761                     45.677                     605136.264
1.000                      0.752                     45.091                     606165.866
1.000                      0.756                     45.384                     607179.868
1.000                      0.752                     45.091                     608209.469
1.000                      0.742                     44.506                     609207.871
1.000                      0.722                     43.334                     610221.873
1.000                      0.747                     44.798                     611251.475
1.000                      0.761                     45.677                     612249.876
1.000                      0.761                     45.677                     613263.878
1.000                      0.766                     45.970                     614293.480
1.000                      0.766                     45.970                     615307.482
1.000                      0.756                     45.384                     616305.884
1.000                      0.752                     45.091                     617335.485
1.000                      0.756                     45.384                     618349.487
1.000                      0.752                     45.091                     619347.889
1.000                      0.747                     44.798                     620361.891
1.000                      0.756                     45.384                     621391.493
1.000                      0.752                     45.091                     622389.894
1.000                      0.747                     44.798                     623403.896
1.000                      0.761                     45.677                     624433.498
1.000                      0.752                     45.091                     625431.900
1.000                      0.761                     45.677                     626445.901
1.000                      0.752                     45.091                     627475.503
1.000                      0.761                     45.677                     628458.305
1.000                      0.761                     45.677                     629487.907
1.000                      0.766                     45.970                     630501.909
1.000                      0.761                     45.677                     631531.510
1.000                      0.727                     43.627                     632529.912
1.000                      0.761                     45.677                     633543.914
1.000                      0.766                     45.970                     634573.516
1.000                      0.771                     46.262                     635571.918
1.000                      0.756                     45.384                     636585.919
1.000                      0.771                     46.262                     637615.521
1.000                      0.761                     45.677                     638598.323
1.000                      0.766                     45.970                     639627.925
1.000                      0.752                     45.091                     640641.926
1.000                      0.717                     43.042                     641671.528
1.000                      0.756                     45.384                     642669.930
1.000                      0.756                     45.384                     643683.932
1.000                      0.747                     44.798                     644713.534
1.000                      0.766                     45.970                     645711.935
1.000                      0.761                     45.677                     646725.937
1.000                      0.732                     43.92                     647755.539
1.000                      0.756                     45.384                     648753.941
1.000                      0.756                     45.384                     649767.942
1.000                      0.761                     45.677                     650797.544
1.000                      0.766                     45.970                     651811.546
1.000                      0.761                     45.677                     652809.948
1.000                      0.756                     45.384                     653823.950
1.000                      0.766                     45.970                     654853.551
1.000                      0.766                     45.970                     655851.953
1.000                      0.756                     45.384                     656865.955
1.000                      0.771                     46.262                     657895.557
1.000                      0.761                     45.677                     658893.958
1.000                      0.761                     45.677                     659907.960
1.000                      0.737                     44.213                     660937.562
1.000                      0.732                     43.92                     661920.364
1.000                      0.761                     45.677                     662949.966
1.000                      0.766                     45.970                     663963.967
1.000                      0.761                     45.677                     664993.569
1.000                      0.756                     45.384                     665991.971
1.000                      0.756                     45.384                     667005.973
1.000                      0.761                     45.677                     668035.574
1.000                      0.766                     45.970                     669033.976
1.000                      0.747                     44.798                     670047.978
1.000                      0.752                     45.091                     671077.580
1.000                      0.756                     45.384                     672060.382
1.000                      0.761                     45.677                     673089.983
1.000                      0.752                     45.091                     674103.985
1.000                      0.727                     43.627                     675133.587
1.000                      0.752                     45.091                     676131.989
1.000                      0.752                     45.091                     677145.990
1.000                      0.756                     45.384                     678175.592
1.000                      0.771                     46.262                     679173.994
1.000                      0.766                     45.970                     680187.996
1.000                      0.742                     44.506                     681217.598
1.000                      0.791                     47.434                     682215.999
1.000                      0.771                     46.262                     683230.001
1.000                      0.732                     43.92                     684259.603
1.000                      0.756                     45.384                     685242.405
1.000                      0.717                     43.042                     686272.006
1.000                      0.732                     43.92                     687286.008
1.000                      0.727                     43.627                     688315.610
1.000                      0.776                     46.555                     689314.012
1.000                      0.766                     45.970                     690328.014
1.000                      0.776                     46.555                     691357.616
1.000                      0.781                     46.848                     692356.017
1.000                      0.766                     45.970                     693370.019
1.000                      0.771                     46.262                     694399.621
1.000                      0.776                     46.555                     695382.422
1.000                      0.776                     46.555                     696412.024
1.000                      0.776                     46.555                     697426.026
1.000                      0.776                     46.555                     698455.628
1.000                      0.786                     47.141                     699454.030
1.000                      0.766                     45.970                     700468.032
1.000                      0.786                     47.141                     701497.633
1.000                      0.771                     46.262                     702496.035
1.000                      0.761                     45.677                     703510.037
1.000                      0.747                     44.798                     704539.639
1.000                      0.752                     45.091                     705538.040
1.000                      0.771                     46.262                     706552.042
1.000                      0.781                     46.848                     707581.644
1.000                      0.761                     45.677                     708595.646
1.000                      0.786                     47.141                     709594.048
1.000                      0.781                     46.848                     710608.049
1.000                      0.771                     46.262                     711637.651
1.000                      0.776                     46.555                     712636.053
1.000                      0.781                     46.848                     713650.055
1.000                      0.786                     47.141                     714679.656
1.000                      0.781                     46.848                     715678.058
1.000                      0.776                     46.555                     716692.06
1.000                      0.761                     45.677                     717721.662
1.000                      0.766                     45.970                     718735.664
1.000                      0.795                     47.726                     719734.065
1.000                      0.781                     46.848                     720748.067
1.000                      0.786                     47.141                     721777.669
1.000                      0.761                     45.677                     722776.071
1.000                      0.795                     47.726                     723790.072
1.000                      0.752                     45.091                     724819.674
1.000                      0.786                     47.141                     725818.076
1.000                      0.776                     46.555                     726832.078
1.000                      0.786                     47.141                     727861.680
1.000                      0.781                     46.848                     728844.481
1.000                      0.791                     47.434                     729874.083
1.000                      0.786                     47.141                     730888.085
1.000                      0.786                     47.141                     731917.687
1.000                      0.727                     43.627                     732916.088
1.000                      0.781                     46.848                     733930.090
1.000                      0.800                     48.019                     734959.692
1.000                      0.800                     48.019                     735958.094
1.000                      0.795                     47.726                     736972.096
1.000                      0.786                     47.141                     738001.697
1.000                      0.795                     47.726                     739000.099
1.000                      0.781                     46.848                     740014.101
1.000                      0.786                     47.141                     741043.703
1.000                      0.795                     47.726                     742057.704
1.000                      0.805                     48.312                     743056.106
1.000                      0.791                     47.434                     744070.108
1.000                      0.791                     47.434                     745099.710
1.000                      0.800                     48.019                     746098.112
1.000                      0.791                     47.434                     747112.113
1.000                      0.795                     47.726                     748141.715
1.000                      0.795                     47.726                     749140.117
1.000                      0.800                     48.019                     750154.119
1.000                      0.791                     47.434                     751183.720
1.000                      0.781                     46.848                     752166.522
1.000                      0.791                     47.434                     753196.124
1.000                      0.786                     47.141                     754210.126
1.000                      0.791                     47.434                     755239.728
1.000                      0.791                     47.434                     756238.129
1.000                      0.805                     48.312                     757252.131
1.000                      0.795                     47.726                     758281.733
1.000                      0.800                     48.019                     759280.135
1.000                      0.805                     48.312                     760294.136
1.000                      0.795                     47.726                     761323.738
1.000                      0.820                     49.190                     762306.540
1.000                      0.786                     47.141                     763336.142
1.000                      0.800                     48.019                     764350.144
1.000                      0.786                     47.141                     765379.746
1.000                      0.771                     46.262                     766378.147
1.000                      0.800                     48.019                     767392.149
1.000                      0.791                     47.434                     768421.751
1.000                      0.810                     48.605                     769420.153
1.000                      0.805                     48.312                     770434.154
1.000                      0.791                     47.434                     771463.756
1.000                      0.795                     47.726                     772462.158
1.000                      0.761                     45.677                     773476.160
1.000                      0.810                     48.605                     774505.762
1.000                      0.776                     46.555                     775519.763
1.000                      0.771                     46.262                     776518.165
1.000                      0.805                     48.312                     777532.167
1.000                      0.820                     49.190                     778561.769
1.000                      0.795                     47.726                     779560.170
1.000                      0.805                     48.312                     780574.172
1.000                      0.810                     48.605                     781603.774
1.000                      0.800                     48.019                     782602.176
1.000                      0.771                     46.262                     783616.178
1.000                      0.810                     48.605                     784645.779
1.000                      0.800                     48.019                     785628.581
1.000                      0.805                     48.312                     786658.183
1.000                      0.795                     47.726                     787672.185
1.000                      0.805                     48.312                     788701.786
1.000                      0.815                     48.898                     789700.188
1.000                      0.805                     48.312                     790714.19
1.000                      0.815                     48.898                     791743.792
1.000                      0.810                     48.605                     792742.194
1.000                      0.805                     48.312                     793756.195
1.000                      0.825                     49.483                     794785.797
1.000                      0.800                     48.019                     795784.199
1.000                      0.805                     48.312                     796798.201
1.000                      0.810                     48.605                     797827.802
1.000                      0.766                     45.970                     798841.804
1.000                      0.800                     48.019                     799840.206
1.000                      0.805                     48.312                     800854.208
1.000                      0.805                     48.312                     801883.810
1.000                      0.795                     47.726                     802882.211
1.000                      0.786                     47.141                     803896.213
1.000                      0.800                     48.019                     804925.815
1.000                      0.776                     46.555                     805924.217
1.000                      0.776                     46.555                     806938.218
1.000                      0.776                     46.555                     807967.820
1.000                      0.791                     47.434                     808981.822
1.000                      0.805                     48.312                     809980.224
1.000                      0.791                     47.434                     810994.226
1.000                      0.810                     48.605                     812023.827
1.000                      0.761                     45.677                     813022.229
1.000                      0.795                     47.726                     814036.231
1.000                      0.805                     48.312                     815065.833
1.000                      0.815                     48.898                     816064.234
1.000                      0.800                     48.019                     817078.236
1.000                      0.786                     47.141                     818107.838
1.000                      0.805                     48.312                     819090.640
1.000                      0.805                     48.312                     820120.242
1.000                      0.795                     47.726                     821134.243
1.000                      0.810                     48.605                     822163.845
1.000                      0.810                     48.605                     823162.247
1.000                      0.800                     48.019                     824176.249
1.000                      0.795                     47.726                     825205.850
1.000                      0.810                     48.605                     826204.252
1.000                      0.805                     48.312                     827218.254
1.000                      0.810                     48.605                     828247.856
1.000                      0.795                     47.726                     829246.258
1.000                      0.810                     48.605                     830260.259
1.000                      0.810                     48.605                     831289.861
1.000                      0.805                     48.312                     832303.863
1.000                      0.815                     48.898                     833302.265
1.000                      0.815                     48.898                     834316.266
1.000                      0.815                     48.898                     835345.868
1.000                      0.810                     48.605                     836344.270
1.000                      0.810                     48.605                     837358.272
1.000                      0.805                     48.312                     838387.874
1.000                      0.791                     47.434                     839386.276
1.000                      0.825                     49.483                     840400.277
1.000                      0.815                     48.898                     841429.879
1.000                      0.815                     48.898                     842412.681
1.000                      0.781                     46.848                     843442.283
1.000                      0.815                     48.898                     844456.284
1.000                      0.815                     48.898                     845485.886
1.000                      0.815                     48.898                     846484.288
1.000                      0.815                     48.898                     847498.290
1.000                      0.815                     48.898                     848527.892
1.000                      0.800                     48.019                     849526.293
1.000                      0.805                     48.312                     850540.295
1.000                      0.810                     48.605                     851569.897
1.000                      0.815                     48.898                     852552.699
1.000                      0.815                     48.898                     853582.300
1.000                      0.839                     50.362                     854596.302
1.000                      0.786                     47.141                     855625.904
1.000                      0.786                     47.141                     856624.306
1.000                      0.825                     49.483                     857638.308
1.000                      0.825                     49.483                     858667.909
1.000                      0.820                     49.190                     859666.311
1.000                      0.820                     49.190                     860680.313
1.000                      0.815                     48.898                     861709.915
1.000                      0.825                     49.483                     862708.316
1.000                      0.825                     49.483                     863722.318
1.000                      0.820                     49.190                     864751.92
1.000                      0.834                     50.069                     865734.722
1.000                      0.820                     49.190                     866764.324
1.000                      0.830                     49.776                     867778.325
1.000                      0.815                     48.898                     868807.927
1.000                      0.820                     49.190                     869806.329
1.000                      0.820                     49.190                     870820.331
1.000                      0.820                     49.190                     871849.932
1.000                      0.830                     49.776                     872848.334
1.000                      0.839                     50.362                     873862.336
1.000                      0.800                     48.019                     874891.938
1.000                      0.810                     48.605                     875874.740
1.000                      0.810                     48.605                     876904.341
1.000                      0.810                     48.605                     877918.343
1.000                      0.820                     49.190                     878947.945
1.000                      0.791                     47.434                     879946.347
1.000                      0.834                     50.069                     880960.348
1.000                      0.830                     49.776                     881989.950
1.000                      0.820                     49.190                     882988.352
1.000                      0.825                     49.483                     884002.354
1.000                      0.825                     49.483                     885031.956
1.000                      0.830                     49.776                     886030.357
1.000                      0.825                     49.483                     887044.359
1.000                      0.830                     49.776                     888073.961
1.000                      0.815                     48.898                     889087.963
1.000                      0.800                     48.019                     890086.364
1.000                      0.820                     49.190                     891100.366
1.000                      0.825                     49.483                     892129.968
1.000                      0.820                     49.190                     893128.370
1.000                      0.820                     49.190                     894142.372
1.000                      0.830                     49.776                     895171.973
1.000                      0.781                     46.848                     896170.375
1.000                      0.815                     48.898                     897184.377
1.000                      0.825                     49.483                     898213.979
1.000                      0.820                     49.190                     899227.981
1.000                      0.825                     49.483                     900226.382
1.000                      0.825                     49.483                     901240.384
1.000                      0.834                     50.069                     902269.986
1.000                      0.820                     49.190                     903268.388
1.000                      0.825                     49.483                     904282.389
1.000                      0.839                     50.362                     905311.991
1.000                      0.820                     49.190                     906310.393
1.000                      0.830                     49.776                     907324.395
1.000                      0.825                     49.483                     908353.997
1.000                      0.820                     49.190                     909336.798
1.000                      0.815                     48.898                     910366.400
1.000                      0.786                     47.141                     911380.402
1.000                      0.825                     49.483                     912410.004
1.000                      0.815                     48.898                     913408.406
1.000                      0.830                     49.776                     914422.407
1.000                      0.786                     47.141                     915452.009
1.000                      0.830                     49.776                     916450.411
1.000                      0.795                     47.726                     917464.413
1.000                      0.825                     49.483                     918494.014
1.000                      0.791                     47.434                     919492.416
1.000                      0.839                     50.362                     920506.418
1.000                      0.830                     49.776                     921536.020
1.000                      0.834                     50.069                     922550.022
1.000                      0.815                     48.898                     923548.423
1.000                      0.839                     50.362                     924562.425
1.000                      0.815                     48.898                     925592.027
1.000                      0.834                     50.069                     926590.429
1.000                      0.825                     49.483                     927604.430
1.000                      0.834                     50.069                     928634.032
1.000                      0.839                     50.362                     929632.434
1.000                      0.825                     49.483                     930646.436
1.000                      0.825                     49.483                     931676.038
1.000                      0.830                     49.776                     932658.839
1.000                      0.834                     50.069                     933688.441
1.000                      0.825                     49.483                     934702.443
1.000                      0.810                     48.605                     935732.045
1.000                      0.810                     48.605                     936730.446
1.000                      0.791                     47.434                     937744.448
1.000                      0.820                     49.190                     938774.05
1.000                      0.815                     48.898                     939772.452
1.000                      0.791                     47.434                     940786.454
1.000                      0.795                     47.726                     941816.055
1.000                      0.825                     49.483                     942814.457
1.000                      0.830                     49.776                     943828.459
1.000                      0.810                     48.605                     944842.461
1.000                      0.830                     49.776                     945872.062
1.000                      0.830                     49.776                     946870.464
1.000                      0.825                     49.483                     947884.466
1.000                      0.815                     48.898                     948914.068
1.000                      0.820                     49.190                     949912.470
1.000                      0.820                     49.190                     950926.471
1.000                      0.839                     50.362                     951956.073
1.000                      0.810                     48.605                     952954.475
1.000                      0.810                     48.605                     953968.477
1.000                      0.820                     49.190                     954998.078
1.000                      0.825                     49.483                     955980.880
1.000                      0.825                     49.483                     957010.482
1.000                      0.820                     49.190                     958024.484
1.000                      0.825                     49.483                     959054.086
1.000                      0.825                     49.483                     960052.487
1.000                      0.825                     49.483                     961066.489
1.000                      0.820                     49.190                     962096.091
1.000                      0.830                     49.776                     963094.493
1.000                      0.815                     48.898                     964108.494
1.000                      0.839                     50.362                     965138.096
1.000                      0.820                     49.190                     966120.898
1.000                      0.820                     49.190                     967150.500
1.000                      0.815                     48.898                     968164.502
1.000                      0.795                     47.726                     969194.104
1.000                      0.800                     48.019                     970192.505
1.000                      0.834                     50.069                     971206.507
1.000                      0.825                     49.483                     972236.109
1.000                      0.825                     49.483                     973234.510
1.000                      0.830                     49.776                     974248.512
1.000                      0.830                     49.776                     975278.114
1.000                      0.825                     49.483                     976276.516
1.000                      0.820                     49.190                     977290.518
1.000                      0.825                     49.483                     978320.120
1.000                      0.849                     50.947                     979334.121
1.000                      0.825                     49.483                     980332.523
1.000                      0.830                     49.776                     981346.525
1.000                      0.820                     49.190                     982376.127
1.000                      0.825                     49.483                     983374.528
1.000                      0.830                     49.776                     984388.530
1.000                      0.830                     49.776                     985418.132
1.000                      0.844                     50.654                     986416.534
1.000                      0.820                     49.190                     987430.536
1.000                      0.849                     50.947                     988460.137
1.000                      0.825                     49.483                     989442.939
1.000                      0.844                     50.654                     990472.541
1.000                      0.839                     50.362                     991486.543
1.000                      0.834                     50.069                     992516.144
1.000                      0.834                     50.069                     993514.546
1.000                      0.834                     50.069                     994528.548
1.000                      0.830                     49.776                     995558.150
1.000                      0.834                     50.069                     996556.552
1.000                      0.815                     48.898                     997570.553
1.000                      0.844                     50.654                     998600.155
1.000                      0.844                     50.654                     999582.957
1.000                      0.854                     51.24                     1000612.559
1.000                      0.830                     49.776                     1001626.560
1.000                      0.805                     48.312                     1002656.162
1.000                      0.825                     49.483                     1003654.564
1.000                      0.830                     49.776                     1004668.566
1.000                      0.800                     48.019                     1005698.168
1.000                      0.834                     50.069                     1006696.569
1.000                      0.859                     51.533                     1007710.571
1.000                      0.830                     49.776                     1008740.173
1.000                      0.839                     50.362                     1009738.575
1.000                      0.839                     50.362                     1010752.576
1.000                      0.825                     49.483                     1011782.178
1.000                      0.854                     51.24                     1012796.18
1.000                      0.839                     50.362                     1013794.582
1.000                      0.849                     50.947                     1014808.584
1.000                      0.834                     50.069                     1015838.185
1.000                      0.839                     50.362                     1016836.587
1.000                      0.844                     50.654                     1017850.589
1.000                      0.839                     50.362                     1018880.191
1.000                      0.834                     50.069                     1019878.592
1.000                      0.834                     50.069                     1020892.594
1.000                      0.815                     48.898                     1021922.196
1.000                      0.805                     48.312                     1022904.998
1.000                      0.839                     50.362                     1023934.600
1.000                      0.839                     50.362                     1024948.601
1.000                      0.839                     50.362                     1025978.203
1.000                      0.830                     49.776                     1026976.605
1.000                      0.834                     50.069                     1027990.607
1.000                      0.849                     50.947                     1029020.208
1.000                      0.834                     50.069                     1030018.610
1.000                      0.854                     51.24                     1031032.612
1.000                      0.869                     52.118                     1032062.214
1.000                      0.834                     50.069                     1033060.616
1.000                      0.810                     48.605                     1034074.617
1.000                      0.844                     50.654                     1035104.219
1.000                      0.844                     50.654                     1036087.021
1.000                      0.849                     50.947                     1037116.623
1.000                      0.815                     48.898                     1038130.624
1.000                      0.844                     50.654                     1039160.226
1.000                      0.839                     50.362                     1040158.628
1.000                      0.849                     50.947                     1041172.630
1.000                      0.825                     49.483                     1042202.232
1.000                      0.830                     49.776                     1043200.633
1.000                      0.805                     48.312                     1044214.635
1.000                      0.834                     50.069                     1045244.237
1.000                      0.839                     50.362                     1046227.039
1.000                      0.830                     49.776                     1047256.641
1.000                      0.834                     50.069                     1048270.642
1.000                      0.810                     48.605                     1049300.244
1.000                      0.844                     50.654                     1050298.646
1.000                      0.839                     50.362                     1051312.648
1.000                      0.810                     48.605                     1052342.250
1.000                      0.834                     50.069                     1053340.651
1.000                      0.834                     50.069                     1054354.653
1.000                      0.830                     49.776                     1055384.255
1.000                      0.849                     50.947                     1056367.057
1.000                      0.815                     48.898                     1057396.658
1.000                      0.854                     51.24                     1058410.660
1.000                      0.786                     47.141                     1059440.262
1.000                      0.849                     50.947                     1060438.664
1.000                      0.844                     50.654                     1061452.666
1.000                      0.849                     50.947                     1062482.267
1.000                      0.830                     49.776                     1063480.669
1.000                      0.849                     50.947                     1064494.671
1.000                      0.839                     50.362                     1065524.273
1.000                      0.849                     50.947                     1066522.674
1.000                      0.844                     50.654                     1067536.676
1.000                      0.834                     50.069                     1068566.278
1.000                      0.839                     50.362                     1069580.280
1.000                      0.839                     50.362                     1070578.682
1.000                      0.839                     50.362                     1071592.683
1.000                      0.839                     50.362                     1072622.285
1.000                      0.854                     51.24                     1073620.687
1.000                      0.844                     50.654                     1074634.689
1.000                      0.869                     52.118                     1075664.290
1.000                      0.800                     48.019                     1076662.692
1.000                      0.795                     47.726                     1077676.694
1.000                      0.834                     50.069                     1078706.296
1.000                      0.834                     50.069                     1079689.098
1.000                      0.834                     50.069                     1080718.699
1.000                      0.844                     50.654                     1081732.701
1.000                      0.854                     51.24                     1082762.303
1.000                      0.844                     50.654                     1083760.705
1.000                      0.849                     50.947                     1084774.706
1.000                      0.815                     48.898                     1085804.308
1.000                      0.849                     50.947                     1086802.71
1.000                      0.854                     51.24                     1087816.712
1.000                      0.839                     50.362                     1088846.314
1.000                      0.854                     51.24                     1089829.115
1.000                      0.859                     51.533                     1090858.717
1.000                      0.810                     48.605                     1091872.719
1.000                      0.854                     51.24                     1092902.321
1.000                      0.839                     50.362                     1093900.722
1.000                      0.820                     49.190                     1094914.724
1.000                      0.844                     50.654                     1095944.326
1.000                      0.849                     50.947                     1096942.728
1.000                      0.849                     50.947                     1097956.730
1.000                      0.844                     50.654                     1098986.331
1.000                      0.859                     51.533                     1099984.733
1.000                      0.849                     50.947                     1100998.735
1.000                      0.849                     50.947                     1102028.337
1.000                      0.859                     51.533                     1103042.338
1.000                      0.849                     50.947                     1104040.740
1.000                      0.854                     51.24                     1105054.742
1.000                      0.854                     51.24                     1106084.344
1.000                      0.859                     51.533                     1107082.746
1.000                      0.898                     53.875                     1108096.747
1.000                      0.825                     49.483                     1109126.349
1.000                      0.849                     50.947                     1110124.751
1.000                      0.854                     51.24                     1111138.753
1.000                      0.820                     49.190                     1112168.355
1.000                      0.834                     50.069                     1113182.356
1.000                      0.854                     51.24                     1114180.758
1.000                      0.820                     49.190                     1115194.760
1.000                      0.859                     51.533                     1116224.362
1.000                      0.859                     51.533                     1117222.763
1.000                      0.864                     51.826                     1118236.765
1.000                      0.844                     50.654                     1119266.367
1.000                      0.849                     50.947                     1120264.769
1.000                      0.869                     52.118                     1121278.771
1.000                      0.854                     51.24                     1122308.372
1.000                      0.864                     51.826                     1123306.774
1.000                      0.825                     49.483                     1124320.776
1.000                      0.859                     51.533                     1125334.778
1.000                      0.864                     51.826                     1126364.380
1.000                      0.878                     52.704                     1127362.781
1.000                      0.864                     51.826                     1128376.783
1.000                      0.869                     52.118                     1129406.385
1.000                      0.869                     52.118                     1130404.787
1.000                      0.869                     52.118                     1131418.788
1.000                      0.834                     50.069                     1132448.390
1.000                      0.849                     50.947                     1133446.792
1.000                      0.864                     51.826                     1134460.794
1.000                      0.854                     51.24                     1135490.396
1.000                      0.869                     52.118                     1136504.397
1.000                      0.844                     50.654                     1137502.799
1.000                      0.874                     52.411                     1138516.801
1.000                      0.874                     52.411                     1139546.403
1.000                      0.864                     51.826                     1140544.804
1.000                      0.869                     52.118                     1141558.806
1.000                      0.864                     51.826                     1142588.408
1.000                      0.874                     52.411                     1143586.810
1.000                      0.864                     51.826                     1144600.812
1.000                      0.859                     51.533                     1145630.413
1.000                      0.864                     51.826                     1146613.215
1.000                      0.859                     51.533                     1147642.817
1.000                      0.874                     52.411                     1148656.819
1.000                      0.869                     52.118                     1149686.420
1.000                      0.874                     52.411                     1150684.822
1.000                      0.854                     51.24                     1151698.824
1.000                      0.839                     50.362                     1152728.426
1.000                      0.874                     52.411                     1153726.828
1.000                      0.864                     51.826                     1154740.829
1.000                      0.869                     52.118                     1155770.431
1.000                      0.859                     51.533                     1156768.833
1.000                      0.864                     51.826                     1157782.835
1.000                      0.869                     52.118                     1158812.436
1.000                      0.888                     53.290                     1159826.438
1.000                      0.874                     52.411                     1160824.84
1.000                      0.864                     51.826                     1161838.842
1.000                      0.869                     52.118                     1162868.444
1.000                      0.927                     55.632                     1163866.845
1.000                      0.854                     51.24                     1164880.847
1.000                      0.869                     52.118                     1165910.449
1.000                      0.869                     52.118                     1166908.851
1.000                      0.864                     51.826                     1167922.852
1.000                      0.869                     52.118                     1168952.454
1.000                      0.874                     52.411                     1169935.256
1.000                      0.878                     52.704                     1170964.858
1.000                      0.834                     50.069                     1171978.860
1.000                      0.869                     52.118                     1173008.461
1.000                      0.869                     52.118                     1174006.863
1.000                      0.888                     53.290                     1175020.865
1.000                      0.869                     52.118                     1176050.467
1.000                      0.883                     52.997                     1177048.868
1.000                      0.883                     52.997                     1178062.870
1.000                      0.869                     52.118                     1179092.472
1.000                      0.883                     52.997                     1180075.274
1.000                      0.830                     49.776                     1181104.876
1.000                      0.864                     51.826                     1182118.877
1.000                      0.878                     52.704                     1183148.479
1.000                      0.883                     52.997                     1184146.881
1.000                      0.883                     52.997                     1185160.883
1.000                      0.874                     52.411                     1186190.485
1.000                      0.874                     52.411                     1187188.886
1.000                      0.874                     52.411                     1188202.888
1.000                      0.878                     52.704                     1189232.490
1.000                      0.869                     52.118                     1190230.892
1.000                      0.878                     52.704                     1191244.894
1.000                      0.883                     52.997                     1192274.495
1.000                      0.854                     51.24                     1193288.497
1.000                      0.869                     52.118                     1194286.899
1.000                      0.864                     51.826                     1195300.901
1.000                      0.878                     52.704                     1196330.502
1.000                      0.859                     51.533                     1197328.904
1.000                      0.869                     52.118                     1198342.906
1.000                      0.878                     52.704                     1199372.508
1.000                      0.849                     50.947                     1200370.910
1.000                      0.859                     51.533                     1201384.911
1.000                      0.883                     52.997                     1202414.513
1.000                      0.869                     52.118                     1203397.315
1.000                      0.878                     52.704                     1204426.917
1.000                      0.903                     54.168                     1205440.918
1.000                      0.883                     52.997                     1206470.520
1.000                      0.883                     52.997                     1207468.922
1.000                      0.883                     52.997                     1208482.924
1.000                      0.869                     52.118                     1209512.526
1.000                      0.859                     51.533                     1210510.927
1.000                      0.864                     51.826                     1211524.929
1.000                      0.805                     48.312                     1212554.531
1.000                      0.859                     51.533                     1213552.933
1.000                      0.878                     52.704                     1214566.934
1.000                      0.893                     53.582                     1215596.536
1.000                      0.878                     52.704                     1216610.538
1.000                      0.869                     52.118                     1217608.940
1.000                      0.869                     52.118                     1218622.942
1.000                      0.869                     52.118                     1219652.543
1.000                      0.878                     52.704                     1220650.945
1.000                      0.864                     51.826                     1221664.947
1.000                      0.874                     52.411                     1222694.549
1.000                      0.874                     52.411                     1223708.550
1.000                      0.888                     53.290                     1224706.952
1.000                      0.878                     52.704                     1225736.554
1.000                      0.869                     52.118                     1226719.356
1.000                      0.888                     53.290                     1227748.958
1.000                      0.839                     50.362                     1228762.959
1.000                      0.869                     52.118                     1229792.561
1.000                      0.849                     50.947                     1230790.963
1.000                      0.864                     51.826                     1231804.965
1.000                      0.869                     52.118                     1232834.566
1.000                      0.878                     52.704                     1233832.968
1.000                      0.893                     53.582                     1234846.97
1.000                      0.874                     52.411                     1235876.572
1.000                      0.869                     52.118                     1236859.374
1.000                      0.883                     52.997                     1237888.975
1.000                      0.869                     52.118                     1238902.977
1.000                      0.878                     52.704                     1239932.579
1.000                      0.869                     52.118                     1240930.981
1.000                      0.878                     52.704                     1241944.982
1.000                      0.874                     52.411                     1242974.584
1.000                      0.864                     51.826                     1243972.986
1.000                      0.883                     52.997                     1244986.988
1.000                      0.878                     52.704                     1246016.590
1.000                      0.869                     52.118                     1247014.991
1.000                      0.883                     52.997                     1248028.993
1.000                      0.883                     52.997                     1249058.595
1.000                      0.864                     51.826                     1250072.597
1.000                      0.869                     52.118                     1251070.998
1.000                      0.893                     53.582                     1252085.000
1.000                      0.888                     53.290                     1253114.602
1.000                      0.883                     52.997                     1254113.004
1.000                      0.878                     52.704                     1255127.006
1.000                      0.874                     52.411                     1256156.608
1.000                      0.883                     52.997                     1257155.009
1.000                      0.864                     51.826                     1258169.011
1.000                      0.864                     51.826                     1259198.613
1.000                      0.874                     52.411                     1260181.414
1.000                      0.888                     53.290                     1261211.016
1.000                      0.864                     51.826                     1262225.018
1.000                      0.874                     52.411                     1263254.620
1.000                      0.883                     52.997                     1264253.022
1.000                      0.844                     50.654                     1265267.024
1.000                      0.883                     52.997                     1266296.625
1.000                      0.830                     49.776                     1267295.027
1.000                      0.878                     52.704                     1268309.029
1.000                      0.874                     52.411                     1269338.631
1.000                      0.888                     53.290                     1270321.432
1.000                      0.888                     53.290                     1271351.034
1.000                      0.898                     53.875                     1272365.036
1.000                      0.874                     52.411                     1273394.638
1.000                      0.883                     52.997                     1274393.040
1.000                      0.883                     52.997                     1275407.041
1.000                      0.874                     52.411                     1276436.643
1.000                      0.874                     52.411                     1277435.045
1.000                      0.834                     50.069                     1278449.047
1.000                      0.883                     52.997                     1279478.648
1.000                      0.849                     50.947                     1280477.050
1.000                      0.883                     52.997                     1281491.052
1.000                      0.878                     52.704                     1282520.654
1.000                      0.864                     51.826                     1283534.656
1.000                      0.869                     52.118                     1284533.057
1.000                      0.864                     51.826                     1285547.059
1.000                      0.878                     52.704                     1286576.661
1.000                      0.869                     52.118                     1287575.063
1.000                      0.854                     51.24                     1288589.064
1.000                      0.878                     52.704                     1289618.666
1.000                      0.874                     52.411                     1290617.068
1.000                      0.878                     52.704                     1291631.070
1.000                      0.883                     52.997                     1292660.672
1.000                      0.849                     50.947                     1293643.473
1.000                      0.878                     52.704                     1294673.075
1.000                      0.874                     52.411                     1295687.077
1.000                      0.883                     52.997                     1296716.679
1.000                      0.878                     52.704                     1297715.080
1.000                      0.898                     53.875                     1298729.082
1.000                      0.854                     51.24                     1299758.684
1.000                      0.883                     52.997                     1300757.086
1.000                      0.864                     51.826                     1301771.088
1.000                      0.878                     52.704                     1302800.689
1.000                      0.869                     52.118                     1303799.091
1.000                      0.883                     52.997                     1304813.093
1.000                      0.878                     52.704                     1305842.695
1.000                      0.874                     52.411                     1306856.696
1.000                      0.869                     52.118                     1307855.098
1.000                      0.869                     52.118                     1308869.100
1.000                      0.874                     52.411                     1309898.702
1.000                      0.883                     52.997                     1310897.104
1.000                      0.849                     50.947                     1311911.105
1.000                      0.888                     53.290                     1312940.707
1.000                      0.878                     52.704                     1313939.109
1.000                      0.874                     52.411                     1314953.111
1.000                      0.883                     52.997                     1315982.713
1.000                      0.849                     50.947                     1316965.514
1.000                      0.878                     52.704                     1317995.116
1.000                      0.874                     52.411                     1319009.118
1.000                      0.874                     52.411                     1320038.720
1.000                      0.913                     54.754                     1321037.121
1.000                      0.878                     52.704                     1322051.123
1.000                      0.878                     52.704                     1323080.725
1.000                      0.878                     52.704                     1324079.127
1.000                      0.864                     51.826                     1325093.129
1.000                      0.878                     52.704                     1326122.730
1.000                      0.854                     51.24                     1327105.532
1.000                      0.893                     53.582                     1328135.134
1.000                      0.888                     53.290                     1329149.136
1.000                      0.883                     52.997                     1330178.738
1.000                      0.883                     52.997                     1331177.139
1.000                      0.883                     52.997                     1332191.141
1.000                      0.883                     52.997                     1333220.743
1.000                      0.878                     52.704                     1334219.145
1.000                      0.893                     53.582                     1335233.146
1.000                      0.874                     52.411                     1336262.748
1.000                      0.869                     52.118                     1337261.150
1.000                      0.883                     52.997                     1338275.152
1.000                      0.869                     52.118                     1339304.754
1.000                      0.878                     52.704                     1340318.755
1.000                      0.883                     52.997                     1341317.157
1.000                      0.878                     52.704                     1342331.159
1.000                      0.878                     52.704                     1343360.761
1.000                      0.874                     52.411                     1344359.162
1.000                      0.864                     51.826                     1345373.164
1.000                      0.830                     49.776                     1346402.766
1.000                      0.844                     50.654                     1347401.168
1.000                      0.849                     50.947                     1348415.170
1.000                      0.864                     51.826                     1349444.771
1.000                      0.878                     52.704                     1350427.573
1.000                      0.883                     52.997                     1351457.175
1.000                      0.883                     52.997                     1352471.177
1.000                      0.869                     52.118                     1353500.778
1.000                      0.878                     52.704                     1354499.180
1.000                      0.869                     52.118                     1355513.182
1.000                      0.869                     52.118                     1356542.784
1.000                      0.874                     52.411                     1357541.186
1.000                      0.874                     52.411                     1358555.187
1.000                      0.874                     52.411                     1359584.789
1.000                      0.883                     52.997                     1360567.591
1.000                      0.878                     52.704                     1361597.193
1.000                      0.874                     52.411                     1362611.194
1.000                      0.839                     50.362                     1363640.796
1.000                      0.830                     49.776                     1364639.198
1.000                      0.883                     52.997                     1365653.200
1.000                      0.874                     52.411                     1366682.802
1.000                      0.859                     51.533                     1367681.203
1.000                      0.878                     52.704                     1368695.205
1.000                      0.883                     52.997                     1369724.807
1.000                      0.869                     52.118                     1370723.209
1.000                      0.898                     53.875                     1371737.210
1.000                      0.893                     53.582                     1372766.812
1.000                      0.874                     52.411                     1373780.814
1.000                      0.869                     52.118                     1374779.216
1.000                      0.888                     53.290                     1375793.218
1.000                      0.874                     52.411                     1376822.819
1.000                      0.849                     50.947                     1377821.221
1.000                      0.874                     52.411                     1378835.223
1.000                      0.869                     52.118                     1379864.825
1.000                      0.878                     52.704                     1380863.226
1.000                      0.854                     51.24                     1381877.228
1.000                      0.888                     53.290                     1382906.830
1.000                      0.878                     52.704                     1383889.632
1.000                      0.864                     51.826                     1384919.234
1.000                      0.874                     52.411                     1385933.235
1.000                      0.878                     52.704                     1386962.837
1.000                      0.874                     52.411                     1387961.239
1.000                      0.883                     52.997                     1388975.241
1.000                      0.888                     53.290                     1390004.843
1.000                      0.874                     52.411                     1391003.244
1.000                      0.883                     52.997                     1392017.246
1.000                      0.878                     52.704                     1393046.848
1.000                      0.888                     53.290                     1394045.250
1.000                      0.878                     52.704                     1395059.251
1.000                      0.849                     50.947                     1396088.853
1.000                      0.859                     51.533                     1397102.855
1.000                      0.883                     52.997                     1398101.257
1.000                      0.844                     50.654                     1399115.259
1.000                      0.878                     52.704                     1400144.860
1.000                      0.888                     53.290                     1401143.262
1.000                      0.839                     50.362                     1402157.264
1.000                      0.888                     53.290                     1403186.866
1.000                      0.883                     52.997                     1404185.268
1.000                      0.898                     53.875                     1405199.269
1.000                      0.883                     52.997                     1406228.871
1.000                      0.893                     53.582                     1407211.673
1.000                      0.893                     53.582                     1408241.275
1.000                      0.854                     51.24                     1409255.276
1.000                      0.888                     53.290                     1410284.878
1.000                      0.839                     50.362                     1411283.280
1.000                      0.908                     54.461                     1412297.282
1.000                      0.893                     53.582                     1413326.884
1.000                      0.878                     52.704                     1414325.285
1.000                      0.874                     52.411                     1415339.287
1.000                      0.893                     53.582                     1416368.889
1.000                      0.888                     53.290                     1417351.691
1.000                      0.874                     52.411                     1418381.292
1.000                      0.854                     51.24                     1419395.294
1.000                      0.898                     53.875                     1420424.896
1.000                      0.874                     52.411                     1421423.298
1.000                      0.859                     51.533                     1422437.300
1.000                      0.888                     53.290                     1423466.901
1.000                      0.883                     52.997                     1424465.303
1.000                      0.898                     53.875                     1425479.305
1.000                      0.883                     52.997                     1426508.907
1.000                      0.888                     53.290                     1427507.308
1.000                      0.888                     53.290                     1428521.310
1.000                      0.854                     51.24                     1429550.912
1.000                      0.893                     53.582                     1430564.914
1.000                      0.883                     52.997                     1431563.316
1.000                      0.854                     51.24                     1432577.317
1.000                      0.898                     53.875                     1433606.919
1.000                      0.854                     51.24                     1434605.321
1.000                      0.888                     53.290                     1435619.323
1.000                      0.859                     51.533                     1436648.924
1.000                      0.888                     53.290                     1437647.326
1.000                      0.908                     54.461                     1438661.328
1.000                      0.883                     52.997                     1439690.930
1.000                      0.859                     51.533                     1440673.732
1.000                      0.893                     53.582                     1441703.333
1.000                      0.874                     52.411                     1442717.335
1.000                      0.898                     53.875                     1443746.937
1.000                      0.888                     53.290                     1444745.339
1.000                      0.888                     53.290                     1445759.340
1.000                      0.888                     53.290                     1446788.942
1.000                      0.903                     54.168                     1447787.344
1.000                      0.922                     55.339                     1448801.346
1.000                      0.908                     54.461                     1449830.948
1.000                      0.917                     55.046                     1450813.749
1.000                      0.903                     54.168                     1451843.351
1.000                      0.913                     54.754                     1452857.353
1.000                      0.864                     51.826                     1453886.955
1.000                      0.908                     54.461                     1454885.356
1.000                      0.893                     53.582                     1455899.358
1.000                      0.903                     54.168                     1456928.960
1.000                      0.893                     53.582                     1457927.362
1.000                      0.888                     53.290                     1458941.364
1.000                      0.883                     52.997                     1459970.966
1.000                      0.883                     52.997                     1460969.367
1.000                      0.883                     52.997                     1461983.369
1.000                      0.883                     52.997                     1463012.971
1.000                      0.859                     51.533                     1463995.772
1.000                      0.903                     54.168                     1465025.374
1.000                      0.893                     53.582                     1466039.376
1.000                      0.893                     53.582                     1467068.978
1.000                      0.888                     53.290                     1468067.380
1.000                      0.903                     54.168                     1469081.382
1.000                      0.839                     50.362                     1470110.983
1.000                      0.888                     53.290                     1471109.385
1.000                      0.893                     53.582                     1472123.387
1.000                      0.883                     52.997                     1473152.989
1.000                      0.898                     53.875                     1474135.790
1.000                      0.898                     53.875                     1475165.392
1.000                      0.854                     51.24                     1476179.394
1.000                      0.898                     53.875                     1477208.996
1.000                      0.898                     53.875                     1478207.398
1.000                      0.888                     53.290                     1479221.399
1.000                      0.893                     53.582                     1480251.001
1.000                      0.883                     52.997                     1481249.403
1.000                      0.893                     53.582                     1482263.405
1.000                      0.869                     52.118                     1483293.006
1.000                      0.888                     53.290                     1484291.408
1.000                      0.883                     52.997                     1485305.41
1.000                      0.903                     54.168                     1486335.012
1.000                      0.859                     51.533                     1487349.014
1.000                      0.883                     52.997                     1488347.415
1.000                      0.898                     53.875                     1489361.417
1.000                      0.883                     52.997                     1490391.019
1.000                      0.859                     51.533                     1491389.421
1.000                      0.903                     54.168                     1492403.422
1.000                      0.888                     53.290                     1493433.024
1.000                      0.888                     53.290                     1494431.426
1.000                      0.893                     53.582                     1495445.428
1.000                      0.883                     52.997                     1496475.030
1.000                      0.888                     53.290                     1497489.031
1.000                      0.883                     52.997                     1498487.433
1.000                      0.878                     52.704                     1499501.435
1.000                      0.883                     52.997                     1500531.037
1.000                      0.883                     52.997                     1501529.438
1.000                      0.883                     52.997                     1502543.440
1.000                      0.874                     52.411                     1503573.042
1.000                      0.893                     53.582                     1504571.444
1.000                      0.878                     52.704                     1505585.446
1.000                      0.888                     53.290                     1506615.047
1.000                      0.854                     51.24                     1507597.849
1.000                      0.859                     51.533                     1508627.451
1.000                      0.878                     52.704                     1509641.453
1.000                      0.883                     52.997                     1510671.054
1.000                      0.888                     53.290                     1511669.456
1.000                      0.888                     53.290                     1512683.458
1.000                      0.859                     51.533                     1513713.060
1.000                      0.893                     53.582                     1514711.462
1.000                      0.893                     53.582                     1515725.463
1.000                      0.903                     54.168                     1516755.065
1.000                      0.898                     53.875                     1517753.467
1.000                      0.869                     52.118                     1518767.469
1.000                      0.888                     53.290                     1519797.070
1.000                      0.903                     54.168                     1520811.072
1.000                      0.854                     51.24                     1521809.474
1.000                      0.898                     53.875                     1522823.476
1.000                      0.893                     53.582                     1523853.078
1.000                      0.883                     52.997                     1524851.479
1.000                      0.839                     50.362                     1525865.481
1.000                      0.874                     52.411                     1526895.083
1.000                      0.888                     53.290                     1527909.085
1.000                      0.859                     51.533                     1528907.486
1.000                      0.888                     53.290                     1529937.088
1.000                      0.888                     53.290                     1530919.890
1.000                      0.888                     53.290                     1531949.492
1.000                      0.864                     51.826                     1532963.494
1.000                      0.859                     51.533                     1533993.096
1.000                      0.888                     53.290                     1534991.497
1.000                      0.888                     53.290                     1536005.499
1.000                      0.844                     50.654                     1537035.101
1.000                      0.893                     53.582                     1538033.503
1.000                      0.908                     54.461                     1539047.504
1.000                      0.888                     53.290                     1540077.106
1.000                      0.903                     54.168                     1541075.508
1.000                      0.893                     53.582                     1542089.510
1.000                      0.893                     53.582                     1543103.512
1.000                      0.898                     53.875                     1544133.113
1.000                      0.878                     52.704                     1545131.515
1.000                      0.849                     50.947                     1546145.517
1.000                      0.883                     52.997                     1547175.119
1.000                      0.893                     53.582                     1548173.520
1.000                      0.878                     52.704                     1549187.522
1.000                      0.893                     53.582                     1550217.124
1.000                      0.859                     51.533                     1551215.526
1.000                      0.898                     53.875                     1552229.528
1.000                      0.888                     53.290                     1553259.129
1.000                      0.898                     53.875                     1554273.131
1.000                      0.898                     53.875                     1555271.533
1.000                      0.917                     55.046                     1556285.535
1.000                      0.844                     50.654                     1557315.136
1.000                      0.893                     53.582                     1558313.538
1.000                      0.903                     54.168                     1559327.54
1.000                      0.913                     54.754                     1560357.142
1.000                      0.888                     53.290                     1561355.544
1.000                      0.883                     52.997                     1562369.545
1.000                      0.893                     53.582                     1563399.147
1.000                      0.878                     52.704                     1564381.949
1.000                      0.854                     51.24                     1565411.551
1.000                      0.883                     52.997                     1566425.552
1.000                      0.878                     52.704                     1567455.154
1.000                      0.898                     53.875                     1568453.556
1.000                      0.903                     54.168                     1569467.558
1.000                      0.869                     52.118                     1570497.160
1.000                      0.888                     53.290                     1571495.561
1.000                      0.898                     53.875                     1572509.563
1.000                      0.888                     53.290                     1573539.165
1.000                      0.893                     53.582                     1574537.567
1.000                      0.874                     52.411                     1575551.568
1.000                      0.874                     52.411                     1576581.170
1.000                      0.854                     51.24                     1577595.172
1.000                      0.874                     52.411                     1578593.574
1.000                      0.883                     52.997                     1579607.576
1.000                      0.878                     52.704                     1580637.177
1.000                      0.888                     53.290                     1581635.579
1.000                      0.874                     52.411                     1582649.581
1.000                      0.839                     50.362                     1583679.183
1.000                      0.893                     53.582                     1584677.584
1.000                      0.888                     53.290                     1585691.586
1.000                      0.888                     53.290                     1586721.188
1.000                      0.893                     53.582                     1587703.990
1.000                      0.849                     50.947                     1588733.592
1.000                      0.893                     53.582                     1589747.593
1.000                      0.878                     52.704                     1590777.195
1.000                      0.878                     52.704                     1591775.597
1.000                      0.874                     52.411                     1592789.599
1.000                      0.834                     50.069                     1593819.200
1.000                      0.878                     52.704                     1594817.602
1.000                      0.893                     53.582                     1595831.604
1.000                      0.893                     53.582                     1596861.206
1.000                      0.888                     53.290                     1597844.008
1.000                      0.878                     52.704                     1598873.609
1.000                      0.830                     49.776                     1599887.611
1.000                      0.878                     52.704                     1600917.213
1.000                      0.869                     52.118                     1601915.615
1.000                      0.878                     52.704                     1602929.616
1.000                      0.888                     53.290                     1603959.218
1.000                      0.888                     53.290                     1604957.620
1.000                      0.898                     53.875                     1605971.622
1.000                      0.874                     52.411                     1607001.224
1.000                      0.893                     53.582                     1607999.626
1.000                      0.874                     52.411                     1609013.627
1.000                      0.878                     52.704                     1610043.229
1.000                      0.878                     52.704                     1611057.231
1.000                      0.883                     52.997                     1612055.633
1.000                      0.883                     52.997                     1613069.634
1.000                      0.888                     53.290                     1614099.236
1.000                      0.893                     53.582                     1615097.638
1.000                      0.898                     53.875                     1616111.640
1.000                      0.888                     53.290                     1617141.242
1.000                      0.864                     51.826                     1618139.643
1.000                      0.893                     53.582                     1619153.645
1.000                      0.898                     53.875                     1620183.247
1.000                      0.903                     54.168                     1621166.049
1.000                      0.893                     53.582                     1622195.650
1.000                      0.903                     54.168                     1623209.652
1.000                      0.859                     51.533                     1624239.254
1.000                      0.883                     52.997                     1625237.656
1.000                      0.888                     53.290                     1626251.658
1.000                      0.898                     53.875                     1627281.259
1.000                      0.908                     54.461                     1628279.661
1.000                      0.898                     53.875                     1629293.663
1.000                      0.893                     53.582                     1630323.265
1.000                      0.883                     52.997                     1631321.666
1.000                      0.888                     53.290                     1632335.668
1.000                      0.864                     51.826                     1633349.67
1.000                      0.874                     52.411                     1634379.272
1.000                      0.893                     53.582                     1635377.674
1.000                      0.898                     53.875                     1636391.675
1.000                      0.913                     54.754                     1637421.277
1.000                      0.898                     53.875                     1638419.679
1.000                      0.883                     52.997                     1639433.681
1.000                      0.893                     53.582                     1640463.282
1.000                      0.878                     52.704                     1641461.684
1.000                      0.893                     53.582                     1642475.686
1.000                      0.903                     54.168                     1643505.288
1.000                      0.888                     53.290                     1644488.090
1.000                      0.903                     54.168                     1645517.691
1.000                      0.913                     54.754                     1646531.693
1.000                      0.893                     53.582                     1647561.295
1.000                      0.898                     53.875                     1648559.697
1.000                      0.888                     53.290                     1649573.698
1.000                      0.888                     53.290                     1650603.300
1.000                      0.908                     54.461                     1651601.702
1.000                      0.888                     53.290                     1652615.704
1.000                      0.893                     53.582                     1653645.306
1.000                      0.903                     54.168                     1654628.107
1.000                      0.908                     54.461                     1655657.709
1.000                      0.903                     54.168                     1656671.711
1.000                      0.908                     54.461                     1657701.313
1.000                      0.888                     53.290                     1658699.714
1.000                      0.903                     54.168                     1659713.716
1.000                      0.903                     54.168                     1660743.318
1.000                      0.888                     53.290                     1661741.720
1.000                      0.898                     53.875                     1662755.722
1.000                      0.908                     54.461                     1663785.323
1.000                      0.908                     54.461                     1664783.725
1.000                      0.903                     54.168                     1665797.727
1.000                      0.898                     53.875                     1666827.329
1.000                      0.893                     53.582                     1667841.331
1.000                      0.888                     53.290                     1668839.732
1.000                      0.898                     53.875                     1669853.734
1.000                      0.898                     53.875                     1670883.336
1.000                      0.913                     54.754                     1671881.738
1.000                      0.908                     54.461                     1672895.739
1.000                      0.917                     55.046                     1673925.341
1.000                      0.903                     54.168                     1674923.743
1.000                      0.908                     54.461                     1675937.745
1.000                      0.913                     54.754                     1676967.347
1.000                      0.893                     53.582                     1677950.148
1.000                      0.893                     53.582                     1678979.750
1.000                      0.898                     53.875                     1679993.752
1.000                      0.908                     54.461                     1681023.354
1.000                      0.903                     54.168                     1682021.756
1.000                      0.874                     52.411                     1683035.757
1.000                      0.903                     54.168                     1684065.359
1.000                      0.908                     54.461                     1685063.761
1.000                      0.913                     54.754                     1686077.763
1.000                      0.913                     54.754                     1687107.364
1.000                      0.908                     54.461                     1688090.166
1.000                      0.874                     52.411                     1689119.768
1.000                      0.893                     53.582                     1690133.770
1.000                      0.898                     53.875                     1691163.372
1.000                      0.913                     54.754                     1692177.373
1.000                      0.913                     54.754                     1693206.975
1.000                      0.903                     54.168                     1694205.377
1.000                      0.878                     52.704                     1695219.379
1.000                      0.913                     54.754                     1696248.980
1.000                      0.917                     55.046                     1697247.382
1.000                      0.888                     53.290                     1698261.384
1.000                      0.908                     54.461                     1699290.986
1.000                      0.903                     54.168                     1700289.388
1.000                      0.903                     54.168                     1701303.389
1.000                      0.908                     54.461                     1702332.991
1.000                      0.903                     54.168                     1703346.993
1.000                      0.917                     55.046                     1704345.395
1.000                      0.917                     55.046                     1705359.396
1.000                      0.898                     53.875                     1706388.998
1.000                      0.908                     54.461                     1707387.4
1.000                      0.898                     53.875                     1708401.402
1.000                      0.898                     53.875                     1709431.004
1.000                      0.917                     55.046                     1710429.405
1.000                      0.903                     54.168                     1711443.407
1.000                      0.932                     55.925                     1712473.009
1.000                      0.908                     54.461                     1713455.811
1.000                      0.913                     54.754                     1714485.412
1.000                      0.898                     53.875                     1715499.414
1.000                      0.908                     54.461                     1716529.016
1.000                      0.898                     53.875                     1717527.418
1.000                      0.913                     54.754                     1718541.420
1.000                      0.917                     55.046                     1719571.021
1.000                      0.878                     52.704                     1720569.423
1.000                      0.937                     56.218                     1721583.425
1.000                      0.913                     54.754                     1722613.027
1.000                      0.903                     54.168                     1723595.828
1.000                      0.913                     54.754                     1724625.430
1.000                      0.908                     54.461                     1725639.432
1.000                      0.903                     54.168                     1726669.034
1.000                      0.893                     53.582                     1727667.436
1.000                      0.903                     54.168                     1728681.437
1.000                      0.869                     52.118                     1729711.039
1.000                      0.869                     52.118                     1730709.441
1.000                      0.874                     52.411                     1731723.443
1.000                      0.913                     54.754                     1732753.045
1.000                      0.898                     53.875                     1733751.446
1.000                      0.874                     52.411                     1734765.448
1.000                      0.898                     53.875                     1735795.050
1.000                      0.874                     52.411                     1736809.052
1.000                      0.888                     53.290                     1737807.453
1.000                      0.893                     53.582                     1738821.455
1.000                      0.893                     53.582                     1739851.057
1.000                      0.903                     54.168                     1740849.459
1.000                      0.869                     52.118                     1741863.461
1.000                      0.908                     54.461                     1742893.062
1.000                      0.893                     53.582                     1743891.464
1.000                      0.908                     54.461                     1744905.466
1.000                      0.888                     53.290                     1745935.068
1.000                      0.898                     53.875                     1746917.869
1.000                      0.898                     53.875                     1747947.471
1.000                      0.908                     54.461                     1748961.473
1.000                      0.874                     52.411                     1749991.075
1.000                      0.893                     53.582                     1750989.477
1.000                      0.854                     51.24                     1752003.478
1.000                      0.893                     53.582                     1753033.080
1.000                      0.903                     54.168                     1754031.482
1.000                      0.893                     53.582                     1755045.484
1.000                      0.859                     51.533                     1756075.086
1.000                      0.810                     48.605                     1757073.487
1.000                      0.917                     55.046                     1758087.489
1.000                      0.888                     53.290                     1759117.091
1.000                      0.898                     53.875                     1760131.093
1.000                      0.898                     53.875                     1761129.494
1.000                      0.893                     53.582                     1762143.496
1.000                      0.898                     53.875                     1763173.098
1.000                      0.898                     53.875                     1764171.500
1.000                      0.883                     52.997                     1765185.502
1.000                      0.893                     53.582                     1766215.103
1.000                      0.859                     51.533                     1767213.505
1.000                      0.883                     52.997                     1768227.507
1.000                      0.898                     53.875                     1769257.109
1.000                      0.898                     53.875                     1770239.910
1.000                      0.888                     53.290                     1771269.512
1.000                      0.903                     54.168                     1772283.514
1.000                      0.893                     53.582                     1773313.116
1.000                      0.903                     54.168                     1774311.518
1.000                      0.878                     52.704                     1775325.519
1.000                      0.908                     54.461                     1776355.121
1.000                      0.869                     52.118                     1777353.523
1.000                      0.898                     53.875                     1778367.525
1.000                      0.913                     54.754                     1779397.126
1.000                      0.878                     52.704                     1780379.928
1.000                      0.917                     55.046                     1781409.53
1.000                      0.898                     53.875                     1782423.532
1.000                      0.913                     54.754                     1783453.134
1.000                      0.854                     51.24                     1784451.535
1.000                      0.854                     51.24                     1785465.537
1.000                      0.898                     53.875                     1786495.139
1.000                      0.903                     54.168                     1787493.541
1.000                      0.903                     54.168                     1788507.542
1.000                      0.898                     53.875                     1789537.144
1.000                      0.893                     53.582                     1790535.546
1.000                      0.869                     52.118                     1791549.548
1.000                      0.903                     54.168                     1792579.150
1.000                      0.893                     53.582                     1793593.151
1.000                      0.893                     53.582                     1794591.553
1.000                      0.864                     51.826                     1795605.555
1.000                      0.874                     52.411                     1796635.157
1.000                      0.898                     53.875                     1797633.558
1.000                      0.908                     54.461                     1798647.560
1.000                      0.903                     54.168                     1799677.162
1.000                      0.903                     54.168                     1800675.564
1.000                      0.913                     54.754                     1801689.566
1.000                      0.878                     52.704                     1802719.168
1.000                      0.893                     53.582                     1803701.969
1.000                      0.888                     53.290                     1804731.571
1.000                      0.898                     53.875                     1805745.573
1.000                      0.908                     54.461                     1806775.175
1.000                      0.903                     54.168                     1807773.576
1.000                      0.903                     54.168                     1808787.578
1.000                      0.908                     54.461                     1809817.180
1.000                      0.913                     54.754                     1810815.582
1.000                      0.908                     54.461                     1811829.584
1.000                      0.908                     54.461                     1812859.185
1.000                      0.908                     54.461                     1813857.587
1.000                      0.913                     54.754                     1814871.589
1.000                      0.917                     55.046                     1815885.591
1.000                      0.893                     53.582                     1816915.192
1.000                      0.898                     53.875                     1817913.594
1.000                      0.927                     55.632                     1818927.596
1.000                      0.908                     54.461                     1819957.198
1.000                      0.913                     54.754                     1820955.600
1.000                      0.898                     53.875                     1821969.601
1.000                      0.908                     54.461                     1822999.203
1.000                      0.913                     54.754                     1823997.605
1.000                      0.932                     55.925                     1825011.607
1.000                      0.878                     52.704                     1826041.208
1.000                      0.903                     54.168                     1827024.010
1.000                      0.908                     54.461                     1828053.612
1.000                      0.908                     54.461                     1829067.614
1.000                      0.878                     52.704                     1830097.216
1.000                      0.908                     54.461                     1831095.617
1.000                      0.913                     54.754                     1832109.619
1.000                      0.898                     53.875                     1833139.221
1.000                      0.903                     54.168                     1834137.623
1.000                      0.922                     55.339                     1835151.624
1.000                      0.913                     54.754                     1836181.226
1.000                      0.913                     54.754                     1837164.028
1.000                      0.908                     54.461                     1838193.630
1.000                      0.908                     54.461                     1839207.632
1.000                      0.917                     55.046                     1840237.233
1.000                      0.903                     54.168                     1841235.635
1.000                      0.917                     55.046                     1842249.637
1.000                      0.874                     52.411                     1843279.239
1.000                      0.922                     55.339                     1844277.640
1.000                      0.917                     55.046                     1845291.642
1.000                      0.917                     55.046                     1846321.244
1.000                      0.908                     54.461                     1847319.646
1.000                      0.903                     54.168                     1848333.648
1.000                      0.922                     55.339                     1849363.249
1.000                      0.932                     55.925                     1850377.251
1.000                      0.922                     55.339                     1851375.653
1.000                      0.908                     54.461                     1852389.655
1.000                      0.917                     55.046                     1853419.256
1.000                      0.917                     55.046                     1854417.658
1.000                      0.922                     55.339                     1855431.66
1.000                      0.908                     54.461                     1856461.262
1.000                      0.878                     52.704                     1857459.664
1.000                      0.913                     54.754                     1858473.665
1.000                      0.908                     54.461                     1859503.267
1.000                      0.898                     53.875                     1860486.069
1.000                      0.903                     54.168                     1861515.671
1.000                      0.869                     52.118                     1862529.672
1.000                      0.898                     53.875                     1863559.274
1.000                      0.922                     55.339                     1864557.676
1.000                      0.908                     54.461                     1865571.678
1.000                      0.927                     55.632                     1866601.280
1.000                      0.913                     54.754                     1867599.681
1.000                      0.908                     54.461                     1868613.683
1.000                      0.922                     55.339                     1869643.285
1.000                      0.922                     55.339                     1870626.087
1.000                      0.908                     54.461                     1871655.688
1.000                      0.883                     52.997                     1872669.690
1.000                      0.898                     53.875                     1873699.292
1.000                      0.908                     54.461                     1874697.694
1.000                      0.903                     54.168                     1875711.696
1.000                      0.883                     52.997                     1876741.298
1.000                      0.917                     55.046                     1877739.699
1.000                      0.883                     52.997                     1878753.701
1.000                      0.917                     55.046                     1879783.303
1.000                      0.913                     54.754                     1880781.705
1.000                      0.922                     55.339                     1881795.706
1.000                      0.908                     54.461                     1882825.308
1.000                      0.883                     52.997                     1883808.110
1.000                      0.908                     54.461                     1884837.712
1.000                      0.878                     52.704                     1885851.714
1.000                      0.927                     55.632                     1886881.315
1.000                      0.908                     54.461                     1887879.717
1.000                      0.908                     54.461                     1888893.719
1.000                      0.888                     53.290                     1889923.321
1.000                      0.913                     54.754                     1890921.722
1.000                      0.913                     54.754                     1891935.724
1.000                      0.927                     55.632                     1892965.326
1.000                      0.908                     54.461                     1893948.128
1.000                      0.922                     55.339                     1894977.730
1.000                      0.937                     56.218                     1895991.731
1.000                      0.917                     55.046                     1897021.333
1.000                      0.913                     54.754                     1898019.735
1.000                      0.917                     55.046                     1899033.737
1.000                      0.917                     55.046                     1900063.338
1.000                      0.917                     55.046                     1901061.740
1.000                      0.908                     54.461                     1902075.742
1.000                      0.917                     55.046                     1903105.344
1.000                      0.922                     55.339                     1904103.746
1.000                      0.913                     54.754                     1905117.747
1.000                      0.913                     54.754                     1906147.349
1.000                      0.922                     55.339                     1907161.351
1.000                      0.913                     54.754                     1908159.753
1.000                      0.913                     54.754                     1909173.754
1.000                      0.893                     53.582                     1910203.356
1.000                      0.922                     55.339                     1911201.758
1.000                      0.908                     54.461                     1912215.760
1.000                      0.888                     53.290                     1913245.362
1.000                      0.922                     55.339                     1914243.763
1.000                      0.922                     55.339                     1915257.765
1.000                      0.888                     53.290                     1916287.367
1.000                      0.874                     52.411                     1917270.169
1.000                      0.903                     54.168                     1918299.770
1.000                      0.922                     55.339                     1919313.772
1.000                      0.834                     50.069                     1920343.374
1.000                      0.913                     54.754                     1921341.776
1.000                      0.913                     54.754                     1922355.778
1.000                      0.893                     53.582                     1923385.379
1.000                      0.922                     55.339                     1924383.781
1.000                      0.888                     53.290                     1925397.783
1.000                      0.922                     55.339                     1926427.385
1.000                      0.922                     55.339                     1927410.186
1.000                      0.942                     56.510                     1928439.788
1.000                      0.917                     55.046                     1929453.790
1.000                      0.913                     54.754                     1930483.392
1.000                      0.917                     55.046                     1931481.794
1.000                      0.913                     54.754                     1932495.795
1.000                      0.913                     54.754                     1933525.397
1.000                      0.922                     55.339                     1934523.799
1.000                      0.922                     55.339                     1935537.801
1.000                      0.922                     55.339                     1936567.403
1.000                      0.917                     55.046                     1937565.804
1.000                      0.913                     54.754                     1938579.806
1.000                      0.922                     55.339                     1939609.408
1.000                      0.927                     55.632                     1940592.210
1.000                      0.913                     54.754                     1941621.811
1.000                      0.913                     54.754                     1942635.813
1.000                      0.913                     54.754                     1943665.415
1.000                      0.937                     56.218                     1944663.817
1.000                      0.917                     55.046                     1945677.819
1.000                      0.893                     53.582                     1946707.420
1.000                      0.917                     55.046                     1947705.822
1.000                      0.917                     55.046                     1948719.824
1.000                      0.927                     55.632                     1949749.426
1.000                      0.903                     54.168                     1950732.227
1.000                      0.917                     55.046                     1951761.829
1.000                      0.883                     52.997                     1952775.831
1.000                      0.913                     54.754                     1953805.433
1.000                      0.927                     55.632                     1954803.835
1.000                      0.917                     55.046                     1955817.836
1.000                      0.927                     55.632                     1956847.438
1.000                      0.932                     55.925                     1957845.840
1.000                      0.917                     55.046                     1958859.842
1.000                      0.917                     55.046                     1959889.444
1.000                      0.922                     55.339                     1960872.245
1.000                      0.908                     54.461                     1961901.847
1.000                      0.917                     55.046                     1962915.849
1.000                      0.917                     55.046                     1963945.451
1.000                      0.917                     55.046                     1964943.852
1.000                      0.917                     55.046                     1965957.854
1.000                      0.908                     54.461                     1966987.456
1.000                      0.883                     52.997                     1967985.858
1.000                      0.913                     54.754                     1968999.860
1.000                      0.922                     55.339                     1970029.461
1.000                      0.932                     55.925                     1971027.863
1.000                      0.922                     55.339                     1972041.865
1.000                      0.913                     54.754                     1973071.467
1.000                      0.903                     54.168                     1974054.268
1.000                      0.913                     54.754                     1975083.870
1.000                      0.874                     52.411                     1976097.872
1.000                      0.908                     54.461                     1977127.474
1.000                      0.913                     54.754                     1978125.876
1.000                      0.922                     55.339                     1979139.877
1.000                      0.903                     54.168                     1980169.479
1.000                      0.908                     54.461                     1981167.881
1.000                      0.908                     54.461                     1982181.883
1.000                      0.908                     54.461                     1983211.484
1.000                      0.917                     55.046                     1984194.286
1.000                      0.898                     53.875                     1985223.888
1.000                      0.908                     54.461                     1986237.890
1.000                      0.898                     53.875                     1987267.492
1.000                      0.927                     55.632                     1988265.893
1.000                      0.922                     55.339                     1989279.895
1.000                      0.917                     55.046                     1990309.497
1.000                      0.917                     55.046                     1991307.899
1.000                      0.893                     53.582                     1992321.900
1.000                      0.917                     55.046                     1993351.502
1.000                      0.917                     55.046                     1994349.904
1.000                      0.908                     54.461                     1995363.906
1.000                      0.917                     55.046                     1996393.508
1.000                      0.913                     54.754                     1997407.509
1.000                      0.908                     54.461                     1998405.911
1.000                      0.913                     54.754                     1999419.913
1.000                      0.922                     55.339                     2000449.515
1.000                      0.913                     54.754                     2001447.916
1.000                      0.913                     54.754                     2002461.918
1.000                      0.913                     54.754                     2003491.520
1.000                      0.917                     55.046                     2004489.922
1.000                      0.898                     53.875                     2005503.924
1.000                      0.893                     53.582                     2006533.525
1.000                      0.913                     54.754                     2007516.327
1.000                      0.874                     52.411                     2008545.929
1.000                      0.908                     54.461                     2009559.931
1.000                      0.898                     53.875                     2010589.533
1.000                      0.908                     54.461                     2011587.934
1.000                      0.922                     55.339                     2012601.936
1.000                      0.942                     56.510                     2013631.538
1.000                      0.917                     55.046                     2014629.940
1.000                      0.888                     53.290                     2015643.941
1.000                      0.932                     55.925                     2016673.543
1.000                      0.913                     54.754                     2017656.345
1.000                      0.913                     54.754                     2018685.947
1.000                      0.908                     54.461                     2019699.949
1.000                      0.922                     55.339                     2020729.550
1.000                      0.922                     55.339                     2021727.952
1.000                      0.913                     54.754                     2022741.954
1.000                      0.922                     55.339                     2023771.556
1.000                      0.937                     56.218                     2024769.958
1.000                      0.908                     54.461                     2025783.959
1.000                      0.917                     55.046                     2026813.561
1.000                      0.937                     56.218                     2027811.963
1.000                      0.917                     55.046                     2028825.965
1.000                      0.942                     56.510                     2029855.566
1.000                      0.961                     57.682                     2030869.568
